trial_id	block	trial	type	stim_id	cresp	resp	resp_raw	acc	rt	trial_start_time_expt	trial_start_time	stim_onset_time	stim_offset_time
1	1	1	filler	41	None			NaN	0	4	3.99341410002671	4.50216550007463	6.49367840006016
2	1	2	filler	42	None			NaN	0	7.5	7.50872880010866	8.00349469995126	9.99462130013853
3	1	3	distractor	5	Right	Right	RightArrow	1	1.5507290000096	11	11.0110365001019	11.5016735999379	13.4934859001078
4	1	4	target	43	Left	Left	LeftArrow	1	1.90998700005002	14.5	14.4934825999662	15.0040496999864	16.9934462001547
5	1	5	target	7	Left			-1	0	18	17.993426400004	18.499691999983	20.495976800099
6	1	6	distractor	6	Right	Left	LeftArrow	0	1.65920239989646	21.5	21.5034521999769	22.000115300063	23.9934007001575
7	1	7	target	9	Left	Right	RightArrow	0	1.93460049992427	25	24.9940744000487	25.5010657000821	27.4934463000391
8	1	8	distractor	45	Right	Left	LeftArrow	0	1.47182900016196	28.5	28.4934662000742	28.998785499949	30.993458900135
9	1	9	distractor	44	Right	Right	RightArrow	1	1.19611240015365	32	31.993489400018	32.4967962999362	34.4935113999527
10	1	10	distractor	10	Right	Left	LeftArrow	0	1.37294130004011	35.5	35.493489000015	35.9981333999895	37.9934584000148
11	1	11	target	46	Left	Right	RightArrow	0	1.93300319998525	39	38.9934740001336	39.4969453001395	41.4930898000021
12	1	12	target	8	Left	Left	LeftArrow	1	0.53589539998211	42.5	42.4933992000297	43.0017639000434	44.9933836001437
13	2	1	filler	51	None			NaN	0	46	45.9933712999336	46.5023563001305	48.4987466000021
14	2	2	filler	12	None			NaN	0	49.5	49.5088331000879	50.0015962999314	51.9949360000901
15	2	3	distractor	14	Right	Right	RightArrow	1	1.01354920002632	53	53.0050743001048	53.502840799978	55.4933069001418
16	2	4	distractor	47	Right	Right	RightArrow	1	2.09277730016038	56.5	56.4934761000331	57.0006945999339	58.9982664999552
17	2	5	distractor	49	Right	Right	RightArrow	1	0.889557200018317	60	59.9934779000469	60.4977690000087	62.4933988000266
18	2	6	target	52	Left	Left	LeftArrow	1	0.653495899867266	63.5	63.4934167999309	64.0013296001125	65.9930362000596
19	2	7	target	50	Left	Left	LeftArrow	1	0.947901400038972	67	66.9935010001063	67.4979586999398	69.4934537000954
20	2	8	target	48	Left	Right	RightArrow	0	1.29398340010084	70.5	70.4934135000221	70.9982992999721	72.9934777000453
21	2	9	distractor	16	Right	Left	LeftArrow	0	1.67113179992884	74	73.9936051999684	74.5005367000122	76.4934729000088
22	2	10	distractor	13	Right	Left	LeftArrow	0	1.84466050006449	77.5	77.4934714001138	78.0008809000719	79.9934747000225
23	2	11	target	11	Left	Right	RightArrow	0	0.835259699961171	81	80.9934888000134	81.5013314001262	83.4933092000429
24	2	12	target	15	Left	Right	RightArrow	0	0.483537199907005	84.5	84.4935641000047	85.0003810001072	86.9939617000055
25	3	1	filler	17	None			NaN	0	88	87.9935800000094	88.5036096000113	90.4940382000059
26	3	2	filler	57	None			NaN	0	91.5	91.5084886001423	92.0011318000033	93.9993933001533
27	3	3	distractor	53	Right	Right	RightArrow	1	0.71201130002737	95	95.004948399961	95.5004054999445	97.4933943999931
28	3	4	distractor	20	Right	Left	LeftArrow	0	1.11145570012741	98.5	98.493157699937	99.0036559000146	100.993787100073
29	3	5	target	58	Left	Left	LeftArrow	1	1.69915709993802	102	101.993392900098	102.503451900091	104.493519900134
30	3	6	distractor	56	Right	Right	RightArrow	1	2.12557290005498	105.5	105.493008000078	106.002271400066	107.994107600069
31	3	7	target	55	Left	Right	RightArrow	0	1.98769069998525	109	108.993492000038	109.502784600016	111.497528100153
32	3	8	distractor	21	Right	Left	LeftArrow	0	1.26870140014216	112.5	112.493507600157	112.998912699986	114.99330530013
33	3	9	target	54	Left	Right	RightArrow	0	1.59594890009612	116	115.993056399981	116.499739899999	118.493447900051
34	3	10	target	22	Left	Right	RightArrow	0	0.728628200013191	119.5	119.493508599931	120.000503400108	121.993384200148
35	3	11	distractor	19	Right	Left	LeftArrow	0	1.60452280007303	123	122.993888800032	123.501141200075	125.49342770013
36	3	12	target	18	Left			-1	0	126.5	126.49343640008	127.001131700119	128.995232200017
37	4	1	filler	24	None			NaN	0	130	130.007577799959	130.502527300036	132.498746500118
38	4	2	filler	63	None			NaN	0	133.5	133.505546600092	133.998632000061	135.996424800018
39	4	3	target	26	Left	Left	LeftArrow	1	1.26615480007604	137	137.005670099985	137.50378899998	139.493100499967
40	4	4	distractor	23	Right	Right	RightArrow	1	1.37265009991825	140.5	140.493468400091	140.997462900123	142.993499899982
41	4	5	distractor	59	Right	Right	RightArrow	1	1.08558870013803	144	143.993500600103	144.499489499955	146.493498400087
42	4	6	target	27	Left	Right	RightArrow	0	1.88982279994525	147.5	147.493492499925	147.997126500122	149.992966999998
43	4	7	distractor	25	Right			-1	0	151	150.993489900138	151.498179499991	153.495149400085
44	4	8	target	28	Left	Left	LeftArrow	1	0.491274799918756	154.5	154.504939400125	155.002909400035	156.99347830005
45	4	9	distractor	64	Right	Right	RightArrow	1	0.591742800083011	158	157.994182999944	158.499165799934	160.493490800029
46	4	10	distractor	62	Right	Left	LeftArrow	0	0.767964399885386	161.5	161.493425799999	161.999689300079	163.993437400088
47	4	11	target	60	Left	Right	RightArrow	0	0.617855000076815	165	164.993299100082	165.502351199975	167.493479599943
48	4	12	target	61	Left	Right	RightArrow	0	1.84714199998416	168.5	168.493422599975	169.000521800015	170.99339050008
49	5	1	filler	32	None			NaN	0	172	171.993426500121	172.500669999979	174.495495000156
50	5	2	filler	34	None			NaN	0	175.5	175.508980399929	176.004143400118	177.998285799986
51	5	3	target	31	Left	Right	RightArrow	0	1.29012320004404	179	179.004407800036	179.503011499997	181.493365900125
52	5	4	distractor	65	Right	Right	RightArrow	1	2.01380509999581	182.5	182.493383400142	183.000561800087	185.000284200069
53	5	5	distractor	68	Right	Right	RightArrow	1	0.860897299833596	186	185.993079000153	186.500503000105	188.493376299972
54	5	6	distractor	30	Right	Right	RightArrow	1	1.41638419986703	189.5	189.493507900042	189.999542700127	191.99359060009
55	5	7	target	70	Left	Left	LeftArrow	1	1.41098390007392	193	192.99346440006	193.498792300001	195.493286400102
56	5	8	distractor	67	Right	Left	LeftArrow	0	0.897552599897608	196.5	196.493443600135	196.996863400098	198.993328300072
57	5	9	target	66	Left	Left	LeftArrow	1	1.76428160001524	200	199.993472900009	200.500870000105	202.493421500083
58	5	10	distractor	29	Right	Right	RightArrow	1	1.14691799995489	203.5	203.493158200057	204.001242200145	205.993475500029
59	5	11	target	69	Left	Left	LeftArrow	1	1.84473589994013	207	206.993483199971	207.500262600137	209.493526200065
60	5	12	target	33	Left	Right	RightArrow	0	1.14834619988687	210.5	210.493461500155	211.001412200043	212.993483799975
61	6	1	filler	38	None			NaN	0	214	213.993513900088	214.501325699966	216.499051999999
62	6	2	filler	37	None			NaN	0	217.5	217.508299899986	218.002247900004	219.996924000094
63	6	3	distractor	75	Right	Right	RightArrow	1	1.54492840007879	221	221.009253000142	221.499003299978	223.493481700076
64	6	4	target	36	Left	Right	RightArrow	0	0.994855799945071	224.5	224.493416799931	225.000091500115	226.993426500121
65	6	5	target	76	Left	Right	RightArrow	0	1.59753739996813	228	227.993107600138	228.502289199969	230.493605500087
66	6	6	distractor	71	Right	Left	LeftArrow	0	0.965477500110865	231.5	231.493426800007	232.000975999981	233.993427900132
67	6	7	target	74	Left	Left	LeftArrow	1	1.29692989983596	235	234.993400000036	235.501716500148	237.493469899986
68	6	8	target	73	Left	Left	LeftArrow	1	1.69184260000475	238.5	238.493252800079	238.998578400118	240.993476600153
69	6	9	distractor	39	Right			-1	0	242	241.99345950014	242.499485300155	244.49437550013
70	6	10	distractor	40	Right	Left	LeftArrow	0	0.873859300045297	245.5	245.504973400151	245.999550499953	247.993043200113
71	6	11	target	35	Left	Left	LeftArrow	1	2.07705289986916	249	248.993336500134	249.498904500157	251.498342599953
72	6	12	distractor	72	Right	Right	RightArrow	1	1.77316420013085	252.5	252.493490400026	252.999865100021	254.993468000088
