trial_id	block	trial	type	stim_id	cresp	resp	resp_raw	acc	rt	trial_start_time_expt	trial_start_time	stim_onset_time	stim_offset_time
1	1	1	filler	48	None			NaN	0	4	3.99346460000015	4.53814789999888	6.49913580000066
2	1	2	filler	68	None			NaN	0	7.5	7.50895609999861	8.0387312999992	9.99517560000095
3	1	3	target	46	Left	Left	LeftArrow	1	1.2208189999983	11	11.0061744999985	11.5378453000012	13.4934413999981
4	1	4	distractor	47	Right	Left	LeftArrow	0	1.04309809999904	14.5	14.4934245000004	15.0371863	16.9934547000012
5	1	5	distractor	26	Right	Right	RightArrow	1	1.0415886999981	18	17.9931255999982	18.5398838000001	20.4933947999998
6	1	6	distractor	27	Right	Right	RightArrow	1	0.979184499999974	21.5	21.493441300001	22.0361830000002	23.9930687999986
7	1	7	distractor	5	Right	Right	RightArrow	1	0.983327499998268	25	24.9934505999991	25.5404385000002	27.4933904999998
8	1	8	target	25	Left	Right	RightArrow	0	0.744222599998466	28.5	28.4937102000004	29.0372524000013	30.9933087999998
9	1	9	target	4	Left	Right	RightArrow	0	0.642885199999	32	31.9931752999983	32.5368054999999	34.493321599999
10	1	10	distractor	69	Right	Right	RightArrow	1	0.77309619999869	35.5	35.4934050999982	36.0338219000005	37.9934130000001
11	1	11	target	6	Left	Right	RightArrow	0	1.12483520000023	39	38.9934614000013	39.536271099998	41.4933888000014
12	1	12	target	67	Left	Right	RightArrow	0	0.710313700001279	42.5	42.4934265999982	43.0350894000003	44.9934248999998
13	2	1	filler	9	None			NaN	0	46	45.9933113000006	46.501922899999	48.4948612000007
14	2	2	filler	30	None			NaN	0	49.5	49.5045475000006	50.037471399999	51.9943291999989
15	2	3	target	7	Left	Left	LeftArrow	1	0.852144899999985	53	53.0050298999995	53.5348521999986	55.4934367999995
16	2	4	target	28	Left	Left	LeftArrow	1	0.798219600001175	56.5	56.4929403999995	57.0392850999997	58.9930948000001
17	2	5	distractor	71	Right	Right	RightArrow	1	1.09391380000307	60	59.9934389000009	60.5385968999981	62.4933109000012
18	2	6	target	29	Left	Right	RightArrow	0	0.649137100001099	63.5	63.4939588999987	64.0369016000004	65.9933110999991
19	2	7	distractor	8	Right	Right	RightArrow	1	0.580229700000928	67	66.993260700001	67.5352996000001	69.4933797000012
20	2	8	distractor	72	Right	Right	RightArrow	1	1.28203560000111	70.5	70.4933310999986	70.9984229000002	72.9934221000003
21	2	9	distractor	50	Right	Right	RightArrow	1	1.21515429999999	74	73.9933670999999	74.5005253999989	76.4931475999983
22	2	10	target	70	Left	Right	RightArrow	0	1.15987990000212	77.5	77.4933399000001	78.0069646999982	79.9934413999981
23	2	11	target	49	Left	Right	RightArrow	0	0.940736900000047	81	80.9930122000005	81.5387473999981	83.4934427000007
24	2	12	distractor	51	Right	Left	LeftArrow	0	1.03932779999741	84.5	84.4934327999981	85.0025982000006	86.993424799999
25	3	1	filler	31	None			NaN	0	88	87.9934197000002	88.5354813000013	90.4979457000009
26	3	2	filler	10	None			NaN	0	91.5	91.5066184999996	92.0390857999992	93.9986031000008
27	3	3	distractor	53	Right	Right	RightArrow	1	0.842986899999232	95	95.0052472999996	95.4997388000011	97.4934759999996
28	3	4	target	12	Left	Right	RightArrow	0	1.14421679999941	98.5	98.4933109999984	99.0369341000005	100.993406099999
29	3	5	distractor	74	Right	Right	RightArrow	1	0.684289799999533	102	101.993380200001	102.537021100001	104.493321900001
30	3	6	target	11	Left	Right	RightArrow	0	0.650792100001127	105.5	105.493327799999	106.039285999999	107.9933399
31	3	7	target	75	Left	Right	RightArrow	0	0.601459700003034	109	108.992896700001	109.537146399998	111.493107599999
32	3	8	distractor	54	Right	Right	RightArrow	1	0.640498699998716	112.5	112.493052099999	113.0386263	114.993450099999
33	3	9	distractor	32	Right	Left	LeftArrow	0	0.906643300000724	116	115.9933188	116.538847100001	118.493413299999
34	3	10	target	52	Left	Right	RightArrow	0	1.04094809999879	119.5	119.493365400001	120.0391585	121.993048799999
35	3	11	target	33	Left	Right	RightArrow	0	0.731916299999284	123	122.9934474	123.5059162	125.493456
36	3	12	distractor	73	Right	Right	RightArrow	1	1.86242400000265	126.5	126.493469699999	127.036616099998	128.993436299999
37	4	1	filler	13	None			NaN	0	130	129.993411899999	130.535759999999	132.496636899999
38	4	2	filler	14	None			NaN	0	133.5	133.508340600001	134.001664799998	135.994933499998
39	4	3	target	15	Left	Left	LeftArrow	1	0.812603200000012	137	137.0067122	137.535561199998	139.493403100001
40	4	4	distractor	56	Right	Right	RightArrow	1	1.16768010000305	140.5	140.493315600001	141.002487999998	142.993482999998
41	4	5	distractor	76	Right	Right	RightArrow	1	1.00812519999818	144	143.993481699999	144.534877900001	146.493107499999
42	4	6	target	55	Left	Right	RightArrow	0	0.675940900000569	147.5	147.493051400001	148.000091499998	149.9930073
43	4	7	target	78	Left	Right	RightArrow	0	0.801743300002272	151	150.9933265	151.536796799999	153.493419800001
44	4	8	distractor	36	Right	Right	RightArrow	1	0.864025200000469	154.5	154.493386599999	155.040921399999	156.993424799999
45	4	9	target	77	Left	Right	RightArrow	0	0.724083699999028	158	157.993426599998	158.5381757	160.4930805
46	4	10	target	35	Left	Right	RightArrow	0	1.0752281999994	161.5	161.493338199998	162.040106799999	163.993452399998
47	4	11	distractor	34	Right	Right	RightArrow	1	0.677450899998803	165	164.993410499999	165.504174199999	167.493374099999
48	4	12	distractor	57	Right	Right	RightArrow	1	0.651829300000827	168.5	168.493421399999	168.996266099999	170.993461499998
49	5	1	filler	58	None			NaN	0	172	171.993028000001	172.5394567	174.494409999999
50	5	2	filler	81	None			NaN	0	175.5	175.5097226	176.002392599999	177.997453600001
51	5	3	target	60	Left	Right	RightArrow	0	1.18362229999912	179	179.0039736	179.535830299999	181.493261700001
52	5	4	target	80	Left	Right	RightArrow	0	1.4982740000014	182.5	182.493031800001	183.035975499999	184.993433899999
53	5	5	distractor	18	Right	Left	LeftArrow	0	0.115084999997634	186	185.993016600001	186.535117700001	188.493445
54	5	6	distractor	16	Right	Right	RightArrow	1	1.93844929999977	189.5	189.493386099999	190.035912899999	191.992918399999
55	5	7	distractor	39	Right	Right	RightArrow	1	1.29743410000083	193	192.993322400001	193.541339299998	195.493462499999
56	5	8	target	17	Left	Left	LeftArrow	1	1.42537660000016	196.5	196.4930523	197.035997499999	198.993157599998
57	5	9	target	38	Left	Right	RightArrow	0	0.930520699999761	200	199.993291700001	200.538430199998	202.4934321
58	5	10	distractor	59	Right	Right	RightArrow	1	0.820485299998836	203.5	203.493420300001	204.039148899999	205.993265599998
59	5	11	target	37	Left	Right	RightArrow	0	1.82621949999884	207	206.993036600001	207.493337700002	209.493397499999
60	5	12	distractor	79	Right			-1	0	210.5	210.493378399999	211.037987700001	212.999699699998
61	6	1	filler	21	None			NaN	0	214	214.005103200001	214.536250599998	216.494562899999
62	6	2	filler	40	None			NaN	0	217.5	217.511380399999	218.038254399999	219.998377399999
63	6	3	target	20	Left	Left	LeftArrow	1	1.47196869999971	221	221.0084838	221.536300799999	223.4934245
64	6	4	distractor	62	Right	Right	RightArrow	1	2.46392750000086	224.5	224.494176	225.0377018	226.9983727
65	6	5	distractor	82	Right	Left	LeftArrow	0	1.8809712000002	228	227.993425600002	228.498553999998	230.493349799999
66	6	6	target	61	Left	Right	RightArrow	0	1.69820179999806	231.5	231.493433399999	231.999189900002	233.993466100001
67	6	7	target	83	Left	Right	RightArrow	0	2.23092069999984	235	234.993439599999	235.540287	237.498684599999
68	6	8	target	63	Left	Right	RightArrow	0	0.842542300000787	238.5	238.493384900001	238.998164299999	240.993477600001
69	6	9	target	84	Left	Right	RightArrow	0	1.20723780000117	242	241.993477699998	242.498567099999	244.493376499999
70	6	10	distractor	41	Right	Right	RightArrow	1	1.12606199999937	245.5	245.493328100001	246.038686	247.9932721
71	6	11	distractor	42	Right			-1	0	249	248.993440999999	249.537	251.4970426
72	6	12	distractor	19	Right			-1	0	252.5	252.504984899999	253.0380305	254.994551100001
