trial_id	block	trial	type	stim_id	cresp	resp	resp_raw	acc	rt	trial_start_time_expt	trial_start_time	stim_onset_time	stim_offset_time
1	1	1	filler	48	None			NaN	0	4	3.99342400000023	4.54056620001211	6.4940815000009
2	1	2	filler	68	None			NaN	0	7.5	7.50615749999997	8.04182110000693	9.99878160000662
3	1	3	target	46	Left	Left	LeftArrow	1	1.62590230000205	11	11.0106050000031	11.5354634000105	13.4934553000057
4	1	4	distractor	47	Right			-1	0	14.5	14.4933533000003	15.0357337000023	16.9945732000051
5	1	5	distractor	26	Right	Right	RightArrow	1	1.37807469999825	18	18.0063992000069	18.5378676000109	20.4934574000072
6	1	6	distractor	27	Right			-1	0	21.5	21.493412900003	22.0397204000037	23.9994779000117
7	1	7	distractor	5	Right	Right	RightArrow	1	1.22782479999296	25	25.0075990000041	25.536151200009	27.4934945999994
8	1	8	target	25	Left			-1	0	28.5	28.4934741000034	29.0404634000006	30.997778600009
9	1	9	target	4	Left	Left	LeftArrow	1	1.09353949999786	32	32.0080845000048	32.5408922000061	34.4934052000026
10	1	10	distractor	69	Right			-1	0	35.5	35.4940468999994	36.0411645000131	37.9959706000081
11	1	11	target	6	Left	Left	LeftArrow	1	1.72970320000604	39	39.0081146000011	39.5380704999989	41.4934004000097
12	1	12	target	67	Left			-1	0	42.5	42.4930402000027	43.0358000000124	44.9947912000061
13	2	1	filler	9	None			NaN	0	46	46.0072871000011	46.5055976000003	48.4939164000098
14	2	2	filler	30	None			NaN	0	49.5	49.5072072000039	50.0384655000089	51.993956300008
15	2	3	target	7	Left	Right	RightArrow	0	1.96589260001201	53	53.0059916000027	53.5355404000002	55.4941128000064
16	2	4	target	28	Left			-1	0	56.5	56.4934395000018	57.0005566000036	58.9954544000066
17	2	5	distractor	71	Right	Right	RightArrow	1	1.74792999999772	60	60.007357800001	60.5378894000023	62.4934459000069
18	2	6	target	29	Left			-1	0	63.5	63.493323600007	64.037968900011	65.9963425000024
19	2	7	distractor	8	Right	Right	RightArrow	1	1.18091389999609	67	67.0085734000022	67.5026751000114	69.4935457000101
20	2	8	distractor	72	Right			-1	0	70.5	70.4933834000112	70.9982520000049	72.9951631000004
21	2	9	distractor	50	Right	Right	RightArrow	1	1.44716910000716	74	74.0066399000061	74.535500900005	76.4934404000087
22	2	10	target	70	Left			-1	0	77.5	77.4933944000077	78.033457100013	79.9954241000087
23	2	11	target	49	Left	Left	LeftArrow	1	1.64064070000313	81	81.0048475000076	81.5040253000043	83.4934518000082
24	2	12	distractor	51	Right			-1	0	84.5	84.4933290000045	84.9981243000075	86.9972301000089
25	3	1	filler	31	None	Right	RightArrow	NaN	1.46879350001109	88	88.0038550000027	88.5372602999996	90.4931923000113
26	3	2	filler	10	None			NaN	0	91.5	91.4934406000102	92.0353987999988	93.9998507000128
27	3	3	distractor	53	Right	Right	RightArrow	1	1.07488339999691	95	95.0092402000009	95.4992378000024	97.4934079000086
28	3	4	target	12	Left			-1	0	98.5	98.4934538000089	99.0383104000066	100.999033300002
29	3	5	distractor	74	Right			-1	0	102	102.007717500004	102.5365093	104.494161400013
30	3	6	target	11	Left	Right	RightArrow	0	1.8643110999983	105.5	105.501117100008	106.037430000011	107.993381700013
31	3	7	target	75	Left			-1	0	109	108.993087700001	109.535342000003	111.494132800013
32	3	8	distractor	54	Right	Right	RightArrow	1	2.1264521000121	112.5	112.506489000007	112.999767000001	114.993944300004
33	3	9	distractor	32	Right			-1	0	116	115.993242800003	116.539334400004	118.497861100012
34	3	10	target	52	Left	Left	LeftArrow	1	2.90068669999891	119.5	119.503756300008	120.040644700013	121.995340500012
35	3	11	target	33	Left			-1	0	123	122.993338500004	123.493389100011	125.499930400008
36	3	12	distractor	73	Right	Right	RightArrow	1	1.35952339999494	126.5	126.505704700001	127.037821300008	128.993960300009
37	4	1	filler	13	None			NaN	0	130	129.9934355	130.53719100001	132.4976131
38	4	2	filler	14	None			NaN	0	133.5	133.505714800005	134.001651900006	135.994742300012
39	4	3	target	15	Left	Left	LeftArrow	1	1.55256799999916	137	137.001045700003	137.541035000002	139.493476200005
40	4	4	distractor	56	Right			-1	0	140.5	140.493547100006	141.000750100007	142.995097900013
41	4	5	distractor	76	Right	Right	RightArrow	1	2.90149109999766	144	144.006401400009	144.535155000005	146.496210500001
42	4	6	target	55	Left			-1	0	147.5	147.493320000009	148.0034189	149.994125900004
43	4	7	target	78	Left	Left	LeftArrow	1	1.40659120000782	151	151.004270100006	151.534994500005	153.493405200003
44	4	8	distractor	36	Right			-1	0	154.5	154.493170000002	155.036398700002	156.995729700007
45	4	9	target	77	Left	Left	LeftArrow	1	1.09243190000416	158	158.008026300013	158.5385904	160.493453800009
46	4	10	target	35	Left			-1	0	161.5	161.4933685	162.040136800002	163.994148700003
47	4	11	distractor	34	Right	Right	RightArrow	1	1.56023279999499	165	165.00459370001	165.501969800011	167.493427900001
48	4	12	distractor	57	Right			-1	0	168.5	168.49319790001	169.000465200006	170.99956170001
49	5	1	filler	58	None	Right	RightArrow	NaN	1.43988720000198	172	172.006875300009	172.53855160001	174.493355099999
50	5	2	filler	81	None			NaN	0	175.5	175.493522000004	176.003521300008	177.994106700004
51	5	3	target	60	Left	Left	LeftArrow	1	1.64086880000832	179	179.00724430001	179.539938100002	181.493401400003
52	5	4	target	80	Left			-1	0	182.5	182.493396500009	183.040521600007	184.999305000005
53	5	5	distractor	18	Right	Right	RightArrow	1	1.37798560000374	186	186.001086600008	186.538904200002	188.4934584
54	5	6	distractor	16	Right			-1	0	189.5	189.49338700001	190.038301799999	191.998455500012
55	5	7	distractor	39	Right	Right	RightArrow	1	1.3444187999994	193	193.005766400005	193.534831900004	195.493455400006
56	5	8	target	17	Left			-1	0	196.5	196.493030000012	197.0385866	198.9986661
57	5	9	target	38	Left	Left	LeftArrow	1	1.93849859999318	200	200.006093100004	200.539642500007	202.493340500005
58	5	10	distractor	59	Right			-1	0	203.5	203.493419999999	204.041960000002	205.997264900012
59	5	11	target	37	Left			-1	0	207	207.004062000007	207.500121500008	209.494249700001
60	5	12	distractor	79	Right	Left	LeftArrow	0	0.0782087999978103	210.5	210.504504299999	211.037151900004	212.993942400004
61	6	1	filler	21	None			NaN	0	214	213.993411800009	214.529558400012	216.494512200006
62	6	2	filler	40	None			NaN	0	217.5	217.504378800004	218.038897999999	219.998024900007
63	6	3	target	20	Left	Right	RightArrow	0	1.19443480001064	221	221.008729900001	221.541126399999	223.493460800004
64	6	4	distractor	62	Right			-1	0	224.5	224.493409800009	225.038245700009	227.0002675
65	6	5	distractor	82	Right			-1	0	228	228.003522300001	228.501672800005	230.496096200004
66	6	6	target	61	Left	Right	RightArrow	0	1.70761810000113	231.5	231.5043363	232.002472500011	233.993442800012
67	6	7	target	83	Left			-1	0	235	234.993450500013	235.534245400006	237.495259700008
68	6	8	target	63	Left	Left	LeftArrow	1	1.29211680000299	238.5	238.504102800012	239.002590200005	240.993456900003
69	6	9	target	84	Left			-1	0	242	241.99304690001	242.49971470001	244.49402160001
70	6	10	distractor	41	Right	Right	RightArrow	1	1.03314280000632	245.5	245.509091800006	246.031422800006	247.993438100006
71	6	11	distractor	42	Right			-1	0	249	248.993282100011	249.534366300009	251.495370300006
72	6	12	distractor	19	Right	Right	RightArrow	1	1.19516819999262	252.5	252.507182700007	253.037976600011	254.993018600013
