trial_id	block	trial	type	stim_id	cresp	resp	resp_raw	acc	rt	trial_start_time_expt	trial_start_time	stim_onset_time	stim_offset_time
1	1	1	filler	41	None			NaN	0	4	3.9933849000372	4.50099480012432	6.49807790014893
2	1	2	filler	42	None			NaN	0	7.5	7.5095244999975	8.00345299998298	9.99528270005248
3	1	3	distractor	5	Right	Right	RightArrow	1	1.27806549984962	11	11.0087079000659	11.5048627001233	13.49346040003
4	1	4	target	43	Left	Left	LeftArrow	1	1.57667980017141	14.5	14.4934859001078	14.9983808000106	16.9934731000103
5	1	5	target	7	Left	Left	LeftArrow	1	1.10607219999656	18	17.9933784999885	18.5033663001377	20.4934139000252
6	1	6	distractor	6	Right	Right	RightArrow	1	1.21655409992673	21.5	21.493526100181	21.9996823000256	23.9933956000023
7	1	7	target	9	Left	Left	LeftArrow	1	1.36680949991569	25	24.9936985000968	25.4950286000967	27.4934289001394
8	1	8	distractor	45	Right	Right	RightArrow	1	1.60615450004116	28.5	28.4933591000736	29.0018154000863	30.9934434001334
9	1	9	distractor	44	Right	Left	LeftArrow	0	1.49950749985874	32	31.9934231000952	32.496849300107	34.4934614000376
10	1	10	distractor	10	Right	Right	RightArrow	1	1.78742229985073	35.5	35.4932719999924	36.0029731001705	37.9933633001056
11	1	11	target	46	Left	Left	LeftArrow	1	2.09075019997545	39	38.9931449999567	39.49826760008	41.4989298
12	1	12	target	8	Left	Right	RightArrow	0	1.61777239991352	42.5	42.4932883000001	43.0002197001595	44.9934525000863
13	2	1	filler	51	None			NaN	0	46	45.9933782999869	46.4992333000991	48.4982614000328
14	2	2	filler	12	None			NaN	0	49.5	49.5086707000155	49.9987502000295	51.995889000129
15	2	3	distractor	14	Right	Right	RightArrow	1	0.737806899938732	53	53.0042946999893	53.498721400043	55.4935298999771
16	2	4	distractor	47	Right	Right	RightArrow	1	1.40066880011	56.5	56.4935121000744	56.9981706000399	58.9930771000218
17	2	5	distractor	49	Right	Right	RightArrow	1	1.75726169999689	60	59.993700500112	60.4996407001745	62.4934191000648
18	2	6	target	52	Left	Left	LeftArrow	1	1.84241380007006	63.5	63.4934334000573	64.0025373999961	65.9933931000996
19	2	7	target	50	Left	Left	LeftArrow	1	0.840025800047442	67	66.993329100078	67.4977162000723	69.4933954000007
20	2	8	target	48	Left	Right	RightArrow	0	1.73957889992744	70.5	70.493474900024	71.0026495000347	72.993444000138
21	2	9	distractor	16	Right	Right	RightArrow	1	1.16635790001601	74	73.9933307000902	74.4984767001588	76.4930449000094
22	2	10	distractor	13	Right	Right	RightArrow	1	1.25513019994833	77.5	77.4934551001061	77.999834000133	79.9934640000574
23	2	11	target	11	Left	Left	LeftArrow	1	0.770628299796954	81	80.9933827000204	81.4985379001591	83.4934433000162
24	2	12	target	15	Left	Left	LeftArrow	1	0.857072399929166	84.5	84.4933778000996	85.001593900146	86.9933733001817
25	3	1	filler	17	None			NaN	0	88	87.9931173999794	88.5042086001486	90.498020300176
26	3	2	filler	57	None			NaN	0	91.5	91.502500000177	92.0018675001338	93.9965326001402
27	3	3	distractor	53	Right	Right	RightArrow	1	1.76109639997594	95	95.0066921999678	95.5022551000584	97.4933835000265
28	3	4	distractor	20	Right	Right	RightArrow	1	1.2301354999654	98.5	98.4933752000798	98.9996997001581	100.993401600048
29	3	5	target	58	Left	Left	LeftArrow	1	1.12933750008233	102	101.993414600147	102.502166599967	104.493351600133
30	3	6	distractor	56	Right	Right	RightArrow	1	1.42556460015476	105.5	105.493472400121	105.996814799961	107.993068600073
31	3	7	target	55	Left	Left	LeftArrow	1	0.749494599876925	109	108.992907500127	109.497818000149	111.493299100082
32	3	8	distractor	21	Right	Right	RightArrow	1	1.16309190005995	112.5	112.493484100094	112.997522399994	114.993473000126
33	3	9	target	54	Left	Left	LeftArrow	1	0.918991500046104	116	115.993451300077	116.499993100064	118.493059800006
34	3	10	target	22	Left	Right	RightArrow	0	1.3057325000409	119.5	119.49347620015	119.997925600037	121.993390300078
35	3	11	distractor	19	Right	Right	RightArrow	1	0.697661799844354	123	122.99295590003	123.498416900169	125.493419599952
36	3	12	target	18	Left			-1	0	126.5	126.493608599994	127.00279389997	128.997037600027
37	4	1	filler	24	None			NaN	0	130	130.001541400095	130.502320799977	132.499273700174
38	4	2	filler	63	None			NaN	0	133.5	133.506561800139	133.998932800023	135.996571500087
39	4	3	target	26	Left			-1	0	137	137.004086200148	137.502674600109	139.495661900146
40	4	4	distractor	23	Right	Right	RightArrow	1	1.12048629997298	140.5	140.507557400037	140.997571900021	142.993386600167
41	4	5	distractor	59	Right	Right	RightArrow	1	1.00703529990278	144	143.993109100033	144.5004106001	146.4934390001
42	4	6	target	27	Left	Left	LeftArrow	1	1.10981739987619	147.5	147.493432000047	147.999070000136	149.993388600182
43	4	7	distractor	25	Right	Right	RightArrow	1	1.16636569984257	151	150.993467200082	151.498827600153	153.493403500179
44	4	8	target	28	Left	Left	LeftArrow	1	1.22537399991415	154.5	154.493508600164	154.997632800136	156.993378099985
45	4	9	distractor	64	Right	Right	RightArrow	1	1.31678129988723	158	157.993457600009	158.496991400141	160.493452199968
46	4	10	distractor	62	Right	Right	RightArrow	1	1.35918579995632	161.5	161.493482799968	162.000901400112	163.9932097001
47	4	11	target	60	Left			-1	0	165	164.993503200123	165.50100379996	167.498495399952
48	4	12	target	61	Left	Left	LeftArrow	1	0.862642799969763	168.5	168.50827820017	169.003426100127	170.993394399993
49	5	1	filler	32	None			NaN	0	172	171.993475400144	172.498481800081	174.496371699963
50	5	2	filler	34	None			NaN	0	175.5	175.506633700104	176.002459600102	177.99440750014
51	5	3	target	31	Left	Left	LeftArrow	1	1.01203370001167	179	179.005111800041	179.499942400027	181.493102400098
52	5	4	distractor	65	Right	Right	RightArrow	1	0.897955399937928	182.5	182.493454100098	182.998873600038	184.993460500147
53	5	5	distractor	68	Right	Right	RightArrow	1	0.979186899960041	186	185.993405699963	186.501534300158	188.493553700158
54	5	6	distractor	30	Right	Left	LeftArrow	0	1.4003933002241	189.5	189.49341760017	190.001262699952	191.99343240005
55	5	7	target	70	Left	Left	LeftArrow	1	0.817000400042161	193	192.993326100055	193.501815899974	195.493150900118
56	5	8	distractor	67	Right	Right	RightArrow	1	0.973498299950734	196.5	196.493408499984	196.9991876001	198.993375000078
57	5	9	target	66	Left	Left	LeftArrow	1	1.05091560003348	200	199.993479300058	200.502144300146	202.494100700133
58	5	10	distractor	29	Right	Right	RightArrow	1	0.868345499970019	203.5	203.493649699958	203.998396600131	205.993423100095
59	5	11	target	69	Left	Left	LeftArrow	1	0.64348389999941	207	206.993420300074	207.496789199999	209.493057999993
60	5	12	target	33	Left	Right	RightArrow	0	1.22668260009959	210.5	210.49335990008	211.002346500056	212.99345690012
61	6	1	filler	38	None			NaN	0	214	213.993306400022	214.501713300124	216.495734600117
62	6	2	filler	37	None			NaN	0	217.5	217.506070600124	218.001540400088	219.995877300156
63	6	3	distractor	75	Right	Right	RightArrow	1	0.767208299832419	221	221.004776700167	221.503914700123	223.493480700068
64	6	4	target	36	Left	Right	RightArrow	0	1.97593569988385	224.5	224.493477300042	224.997652100166	226.993379299995
65	6	5	target	76	Left	Left	LeftArrow	1	1.9470259998925	228	227.993476400152	228.49728430016	230.49345950014
66	6	6	distractor	71	Right	Right	RightArrow	1	1.09937109984457	231.5	231.493391999975	231.99973050016	233.99342770013
67	6	7	target	74	Left	Left	LeftArrow	1	0.792876600055024	235	234.993546500104	235.497023300035	237.493466299959
68	6	8	target	73	Left	Left	LeftArrow	1	0.919522400014102	238.5	238.4939282001	239.002109300112	240.993405699963
69	6	9	distractor	39	Right	Right	RightArrow	1	0.68020059983246	242	241.993426600005	242.496690600179	244.49343849998
70	6	10	distractor	40	Right	Left	LeftArrow	0	2.10147680016235	245.5	245.493394999998	246.000597100006	247.994345500134
71	6	11	target	35	Left	Right	RightArrow	0	1.32845630007796	249	248.993419100065	249.501804600004	251.493457100121
72	6	12	distractor	72	Right	Right	RightArrow	1	1.2743687001057	252.5	252.493229100015	252.999207000015	254.993394599995
