trial_id	block	trial	type	stim_id	cresp	resp	resp_raw	acc	rt	trial_start_time_expt	trial_start_time	stim_onset_time	stim_offset_time
1	1	1	filler	5	None			NaN	0	4	3.99342439998873	4.51475510001183	6.49870859994553
2	1	2	filler	25	None			NaN	0	7.5	7.51576129999012	8.00356200011447	9.99870699993335
3	1	3	target	4	Left	Right	RightArrow	0	1.14482070016675	11	11.0089815999381	11.5026662999298	13.4934767999221
4	1	4	target	27	Left	Right	RightArrow	0	1.16852919990197	14.5	14.4934360000771	14.9967350000516	16.9934716999996
5	1	5	target	6	Left			-1	0	18	17.9934596999083	18.4950683999341	20.4988424999174
6	1	6	distractor	48	Right	Right	RightArrow	1	1.44253539992496	21.5	21.5069713999983	21.9997539001051	23.993764200015
7	1	7	distractor	46	Right	Left	LeftArrow	0	2.04145789984614	25	24.9934415000025	25.5017449001316	27.4978464001324
8	1	8	target	47	Left	Left	LeftArrow	1	1.02539400011301	28.5	28.4934628000483	28.9977291999385	30.9934608000331
9	1	9	distractor	26	Right	Left	LeftArrow	0	2.76751519995742	32	31.9935250999406	32.4987604001071	34.4972089000512
10	1	10	distractor	67	Right	Right	RightArrow	1	0.908835900016129	35.5	35.4934197999537	35.9971811000723	37.9933408000506
11	1	11	distractor	68	Right			-1	0	39	38.9933130999561	39.4993815000635	41.4981768999714
12	1	12	target	69	Left	Left	LeftArrow	1	0.854676499962807	42.5	42.5042872999329	42.9975688001141	44.9934354000725
13	2	1	filler	30	None	Right	RightArrow	NaN	1.98429609998129	46	45.9932778999209	46.4969814999495	48.4933211000171
14	2	2	filler	49	None			NaN	0	49.5	49.4933605000842	49.9992551000323	51.9982948000543
15	2	3	distractor	71	Right	Left	LeftArrow	0	2.52475499990396	53	53.0036547000054	53.4990451000631	55.4961349000223
16	2	4	distractor	8	Right	Right	RightArrow	1	1.49002930009738	56.5	56.4934434001334	56.9961494000163	58.9934608000331
17	2	5	target	72	Left	Left	LeftArrow	1	1.48112050001509	60	59.9933817000128	60.4974316000007	62.4930879999883
18	2	6	target	7	Left	Left	LeftArrow	1	1.79466659994796	63.5	63.4934827000834	63.9985613001045	65.9934618000407
19	2	7	distractor	50	Right	Left	LeftArrow	0	0.687441800022498	67	66.9934861999936	67.4967223999556	69.4940247999039
20	2	8	target	9	Left			-1	0	70.5	70.4936110000126	70.9997678000946	72.9997646999545
21	2	9	target	51	Left			-1	0	74	74.0077086000238	74.5013321000151	76.4989926000126
22	2	10	distractor	29	Right	Right	RightArrow	1	0.744673699839041	77.5	77.5046979000326	77.9990314000752	79.9932764999103
23	2	11	distractor	70	Right	Left	LeftArrow	0	1.70662710000761	81	80.9934561001137	81.4965482000262	83.49346040003
24	2	12	target	28	Left	Left	LeftArrow	1	1.23056990001351	84.5	84.4930336999241	84.997110000113	86.9934549999889
25	3	1	filler	33	None	Left	LeftArrow	NaN	1.08467540005222	88	87.9933982999064	88.498992000008	90.4933676999062
26	3	2	filler	54	None			NaN	0	91.5	91.4933408000506	91.9998961000238	93.9982944000512
27	3	3	distractor	75	Right	Right	RightArrow	1	1.2440395001322	95	95.0037150999997	95.4971928999294	97.4933853999246
28	3	4	distractor	10	Right	Right	RightArrow	1	1.73314179992303	98.5	98.4933106999379	98.9982026000507	100.993431099923
29	3	5	target	73	Left			-1	0	102	101.993392999982	102.499817100121	104.498182200128
30	3	6	target	12	Left	Left	LeftArrow	1	2.4460539999418	105.5	105.505702299997	105.996118700132	107.997684800066
31	3	7	target	74	Left	Left	LeftArrow	1	1.65110959997401	109	108.993385100039	109.499063000083	111.493432299932
32	3	8	distractor	53	Right	Right	RightArrow	1	2.01688850019127	112.5	112.493271900108	112.997421599925	114.994283600012
33	3	9	distractor	32	Right	Left	LeftArrow	0	1.76329439994879	116	115.993377600098	116.497601100011	118.493384700036
34	3	10	target	52	Left	Left	LeftArrow	1	1.18138179997914	119.5	119.493177999975	119.997223899933	121.993462699931
35	3	11	target	31	Left			-1	0	123	122.993745200103	123.499607400037	125.498541600071
36	3	12	distractor	11	Right	Right	RightArrow	1	1.57004490005784	126.5	126.504769100109	127.002659999998	128.993487300118
37	4	1	filler	56	None			NaN	0	130	129.993452900089	130.496806000127	132.498019400053
38	4	2	filler	55	None			NaN	0	133.5	133.504953900119	133.996630700072	135.996367800049
39	4	3	distractor	13	Right	Left	LeftArrow	0	1.50350710004568	137	137.005407700082	137.498823900009	139.493541999953
40	4	4	distractor	14	Right	Right	RightArrow	1	1.60653340001591	140.5	140.493151500123	140.999583000084	142.993397000013
41	4	5	distractor	78	Right	Right	RightArrow	1	1.8749558001291	144	143.993447599933	144.500128899934	146.49355169991
42	4	6	target	15	Left	Right	RightArrow	0	1.59250829997472	147.5	147.493049300043	148.001585700084	149.993586299941
43	4	7	target	76	Left	Left	LeftArrow	1	1.63425010000356	151	150.993758599972	151.496899199905	153.493707699934
44	4	8	distractor	36	Right	Right	RightArrow	1	1.48883949988522	154.5	154.493464200059	155.001212900039	156.99357619998
45	4	9	target	77	Left			-1	0	158	157.993464600062	158.496683300007	160.500340699917
46	4	10	target	35	Left	Left	LeftArrow	1	1.58373919990845	161.5	161.506936799968	161.996408200124	163.993433099939
47	4	11	distractor	57	Right	Right	RightArrow	1	1.64684750000015	165	164.993711699964	165.497211599955	167.493417399935
48	4	12	target	34	Left			-1	0	168.5	168.493711299961	169.002181899967	170.998469999991
49	5	1	filler	58	None			NaN	0	172	172.009648900013	172.502249999903	174.498047499917
50	5	2	filler	18	None			NaN	0	175.5	175.505078099901	176.002610800089	177.997397399973
51	5	3	target	60	Left	Left	LeftArrow	1	2.31345350015908	179	179.005559199955	179.501689299941	181.493973799981
52	5	4	target	16	Left	Right	RightArrow	0	1.95941730006598	182.5	182.493424500106	182.997341600014	184.993428699905
53	5	5	distractor	80	Right	Right	RightArrow	1	2.48533419985324	186	185.993442800129	186.497580700088	188.498027400114
54	5	6	target	17	Left	Left	LeftArrow	1	1.69378239987418	189.5	189.493545500096	189.99860520009	191.993497899966
55	5	7	distractor	38	Right			-1	0	193	192.993423999986	193.500881799962	195.49778049998
56	5	8	distractor	81	Right			-1	0	196.5	196.50975940004	197.001768999966	198.998168899911
57	5	9	target	37	Left			-1	0	200	200.005870300112	200.500846500043	202.494156100089
58	5	10	distractor	59	Right			-1	0	203.5	203.510737200035	204.001344399992	205.995606099954
59	5	11	target	39	Left			-1	0	207	207.006620700005	207.498303100001	209.497988200048
60	5	12	distractor	79	Right			-1	0	210.5	210.507337999996	210.996870900039	212.99574230006
61	6	1	filler	42	None			NaN	0	214	214.004712299909	214.498054200085	216.495276600122
62	6	2	filler	83	None			NaN	0	217.5	217.506677699974	217.999619700015	219.993715400109
63	6	3	target	40	Left	Left	LeftArrow	1	1.5391325999517	221	221.006562900031	221.5001048001	223.493426400004
64	6	4	target	84	Left	Left	LeftArrow	1	1.87780140014365	224.5	224.493557800073	225.001302199904	226.993667399976
65	6	5	distractor	61	Right	Right	RightArrow	1	2.65294290008023	228	227.993462600047	228.500040699961	230.494659800082
66	6	6	target	82	Left	Left	LeftArrow	1	1.51384190004319	231.5	231.493436800083	231.998216799926	233.993434800068
67	6	7	distractor	19	Right	Right	RightArrow	1	1.83067040005699	235	234.993724500062	235.496719599934	237.49345119996
68	6	8	distractor	41	Right			-1	0	238.5	238.49345379998	238.997452399926	240.996418300085
69	6	9	distractor	63	Right	Left	LeftArrow	0	1.37460230011493	242	242.009216499981	242.499404900009	244.493986499961
70	6	10	distractor	21	Right	Left	LeftArrow	0	1.65102789993398	245.5	245.493571999948	246.002570700133	247.993934399914
71	6	11	target	62	Left	Right	RightArrow	0	1.28588029998355	249	248.993780300021	249.498078899924	251.493507599924
72	6	12	target	20	Left	Right	RightArrow	0	1.90413159993477	252.5	252.493342600064	252.998440500116	254.994203800103
