trial_id	block	trial	type	stim_id	cresp	resp	resp_raw	acc	rt	trial_start_time_expt	trial_start_time	stim_onset_time	stim_offset_time
1	1	1	filler	5	None			NaN	0	4	3.99339099996723	4.51218399999198	6.49842379998881
2	1	2	filler	25	None			NaN	0	7.5	7.50770049996208	8.0040527000092	9.99617079994641
3	1	3	target	4	Left			-1	0	11	11.0077662999975	11.5005415999331	13.4991279999958
4	1	4	target	27	Left	Left	LeftArrow	1	1.32261709996965	14.5	14.5059943000088	15.0008107000031	16.9935612999834
5	1	5	target	6	Left	Left	LeftArrow	1	1.15039059997071	18	17.9934216999682	18.498567600036	20.493474900024
6	1	6	distractor	48	Right	Right	RightArrow	1	2.57331320003141	21.5	21.4934551999904	21.9977448999416	23.9964577000355
7	1	7	distractor	46	Right	Left	LeftArrow	0	2.35191040008795	25	24.9933681000257	25.49786699994	27.4963499000296
8	1	8	target	47	Left	Right	RightArrow	0	1.13269370002672	28.5	28.4934637999395	29.0018915999681	30.9934344999492
9	1	9	distractor	26	Right			-1	0	32	31.9934351999545	32.4975760999369	34.4985308999894
10	1	10	distractor	67	Right	Right	RightArrow	1	1.54142829996999	35.5	35.5052685999544	35.9987574999686	37.9934831999708
11	1	11	distractor	68	Right	Right	RightArrow	1	2.0299662000034	39	38.9934623999288	39.4985462999903	41.4952887999825
12	1	12	target	69	Left	Left	LeftArrow	1	2.19065710005816	42.5	42.4935258999467	43.0008073999779	44.9959308999823
13	2	1	filler	30	None			NaN	0	46	45.9939583999803	46.4969873999944	48.4977747999365
14	2	2	filler	49	None			NaN	0	49.5	49.5044969000155	49.9978297000052	51.9976387999486
15	2	3	distractor	71	Right	Right	RightArrow	1	1.6104927000124	53	53.0080679999664	53.496908799978	55.4934578000102
16	2	4	distractor	8	Right	Right	RightArrow	1	1.68674149992876	56.5	56.4934409999987	57.0011362000369	58.9934581000125
17	2	5	target	72	Left	Left	LeftArrow	1	1.5522657999536	60	59.9930386999622	60.4970083000371	62.493480599951
18	2	6	target	7	Left	Right	RightArrow	0	0.699469500104897	63.5	63.4933581999503	63.996229399927	65.9934563999996
19	2	7	distractor	50	Right	Right	RightArrow	1	1.12355419993401	67	66.9934294000268	67.5015327000292	69.4931199999992
20	2	8	target	9	Left	Right	RightArrow	0	0.46681560005527	70.5	70.4930441000033	70.9992943999823	72.9933750999626
21	2	9	target	51	Left	Left	LeftArrow	1	2.33534669992514	74	73.993449499947	74.5028939000331	76.4951808999758
22	2	10	distractor	29	Right	Left	LeftArrow	0	1.91543039993849	77.5	77.4934567000018	77.9965621000156	79.9934846999822
23	2	11	distractor	70	Right	Left	LeftArrow	0	0.642413199995644	81	80.9933646999998	81.5004670999479	83.4933926999802
24	2	12	target	28	Left	Left	LeftArrow	1	0.740863800048828	84.5	84.4933763999725	85.0020131999627	86.9933970000129
25	3	1	filler	33	None			NaN	0	88	87.9934063999681	88.5015633000294	90.4941095999675
26	3	2	filler	54	None			NaN	0	91.5	91.501866400009	91.9996667000232	93.9991152000148
27	3	3	distractor	75	Right	Right	RightArrow	1	2.20270990009885	95	95.0048683999339	95.4973303999286	97.5001877000323
28	3	4	distractor	10	Right	Right	RightArrow	1	2.66064299992286	98.5	98.493482699967	98.9979854000267	100.997921100003
29	3	5	target	73	Left	Right	RightArrow	0	1.98008360003587	102	101.993543499964	102.498951699934	104.493421699968
30	3	6	target	12	Left	Right	RightArrow	0	1.27025669999421	105.5	105.493715999997	105.99999469996	107.993443000014
31	3	7	target	74	Left	Left	LeftArrow	1	0.640297099947929	109	108.993625600007	109.498579400009	111.493441500003
32	3	8	distractor	53	Right	Left	LeftArrow	0	0.90854680002667	112.5	112.49348309997	112.996045899927	114.993864299962
33	3	9	distractor	32	Right	Left	LeftArrow	0	0.43170930002816	116	115.993418499944	116.500177499955	118.493329899968
34	3	10	target	52	Left	Left	LeftArrow	1	0.489996700081974	119.5	119.49332759995	119.996810999932	121.993449299945
35	3	11	target	31	Left	Left	LeftArrow	1	0.469337899936363	123	122.993144199951	123.497510200017	125.493373099947
36	3	12	distractor	11	Right	Right	RightArrow	1	1.02211000001989	126.5	126.493423599983	126.996173799969	128.993492699927
37	4	1	filler	56	None			NaN	0	130	129.993436799967	130.497137299972	132.493841400021
38	4	2	filler	55	None			NaN	0	133.5	133.503782899934	133.999259199947	135.998059900012
39	4	3	distractor	13	Right	Right	RightArrow	1	0.75163379998412	137	137.007317099953	137.496178600006	139.49337079993
40	4	4	distractor	14	Right	Right	RightArrow	1	1.42394169990439	140.5	140.493401099928	140.99629010004	142.993110999931
41	4	5	distractor	78	Right	Right	RightArrow	1	1.31499830004759	144	143.993422599975	144.496083399979	146.493445700034
42	4	6	target	15	Left	Right	RightArrow	0	0.777442899998277	147.5	147.493681699969	147.998736200039	149.993362299982
43	4	7	target	76	Left	Left	LeftArrow	1	1.32685940002557	151	150.993435699958	151.498357199947	153.493548400002
44	4	8	distractor	36	Right	Right	RightArrow	1	1.73625139996875	154.5	154.493321200018	154.998979500029	156.993433799944
45	4	9	target	77	Left	Left	LeftArrow	1	1.54970869992394	158	157.993291100021	158.498950200039	160.493362699985
46	4	10	target	35	Left	Right	RightArrow	0	1.24279569997452	161.5	161.493366500014	162.000623399974	163.993443200015
47	4	11	distractor	57	Right	Left	LeftArrow	0	2.02581000002101	165	164.993370899931	165.496409200015	167.49575370003
48	4	12	target	34	Left	Left	LeftArrow	1	0.800479299970903	168.5	168.493160899961	168.996791200014	170.993448799942
49	5	1	filler	58	None			NaN	0	172	171.993479299941	172.499590900028	174.495887099998
50	5	2	filler	18	None			NaN	0	175.5	175.508482899982	176.001172599965	177.99662250001
51	5	3	target	60	Left	Left	LeftArrow	1	0.805886799935251	179	179.005845000036	179.501349100028	181.49347440002
52	5	4	target	16	Left	Right	RightArrow	0	0.672109099919908	182.5	182.493467299966	183.000907400041	184.993514699978
53	5	5	distractor	80	Right	Right	RightArrow	1	1.62038239999674	186	185.993054899969	186.496276599937	188.493803199963
54	5	6	target	17	Left	Right	RightArrow	0	2.28305700002238	189.5	189.493897799985	189.995965800015	191.997123999987
55	5	7	distractor	38	Right	Left	LeftArrow	0	1.55742349999491	193	192.993347299984	193.496388799977	195.492849800037
56	5	8	distractor	81	Right	Right	RightArrow	1	0.995535699999891	196.5	196.493428100017	196.997577199945	198.993447399931
57	5	9	target	37	Left	Left	LeftArrow	1	1.09701170003973	200	199.993163499981	200.495167599991	202.493278400041
58	5	10	distractor	59	Right	Right	RightArrow	1	1.55465710000135	203.5	203.493477100041	204.001754399971	205.993389899959
59	5	11	target	39	Left	Right	RightArrow	0	1.76046349992976	207	206.993073199992	207.501685400028	209.493484899984
60	5	12	distractor	79	Right	Left	LeftArrow	0	0.903884000028484	210.5	210.493496699957	211.001999699976	212.993358999956
61	6	1	filler	42	None			NaN	0	214	213.993460900034	214.496447099955	216.49633600004
62	6	2	filler	83	None			NaN	0	217.5	217.505524600041	217.99859740003	219.997863800032
63	6	3	target	40	Left	Left	LeftArrow	1	1.21222620003391	221	221.004991799942	221.499930799939	223.494096099981
64	6	4	target	84	Left	Left	LeftArrow	1	1.12628440000117	224.5	224.493231800036	225.001418499975	226.993408499984
65	6	5	distractor	61	Right	Right	RightArrow	1	1.57577019999735	228	227.993111999938	228.49841739994	230.493420399958
66	6	6	target	82	Left	Left	LeftArrow	1	2.43418669991661	231.5	231.493482499965	232.000876600039	233.993889999925
67	6	7	distractor	19	Right	Right	RightArrow	1	1.98048080003355	235	234.993319800007	235.499125799979	237.493398200022
68	6	8	distractor	41	Right	Right	RightArrow	1	1.65643650002312	238.5	238.493056999985	238.997295000008	240.993463099934
69	6	9	distractor	63	Right	Left	LeftArrow	0	0.754017999977805	242	241.993510199944	242.498025399982	244.493480199948
70	6	10	distractor	21	Right	Left	LeftArrow	0	1.28486030001659	245.5	245.493476500036	245.999657999957	247.993387099938
71	6	11	target	62	Left	Left	LeftArrow	1	0.785407699993812	249	248.99349969998	249.500597400009	251.493496599956
72	6	12	target	20	Left	Right	RightArrow	0	0.623962500016205	252.5	252.493440999999	252.996898000012	254.99335080001
