trial_id	block	trial	type	stim_id	cresp	resp	resp_raw	acc	rt	trial_start_time_expt	trial_start_time	stim_onset_time	stim_offset_time
1	1	1	filler	5	None			NaN	0	4	3.99337340000784	4.51279950002208	6.49544799997238
2	1	2	filler	25	None			NaN	0	7.5	7.51631109998561	8.00153740000678	10.0006224000244
3	1	3	target	4	Left	Left	LeftArrow	1	1.85909929999616	11	11.0057828999707	11.4964851000113	13.4933386999764
4	1	4	target	27	Left	Right	RightArrow	0	2.30946499999845	14.5	14.493385299982	15.0003278999939	16.9959327999968
5	1	5	target	6	Left	Left	LeftArrow	1	2.22563879995141	18	17.9933034999995	18.499506400025	20.4981116999988
6	1	6	distractor	48	Right	Right	RightArrow	1	2.17652909999015	21.5	21.4931951999897	22.0002284999937	23.9967832000111
7	1	7	distractor	46	Right	Left	LeftArrow	0	1.35940739995567	25	24.9934610999771	25.4984739000211	27.4934978000238
8	1	8	target	47	Left	Right	RightArrow	0	1.32783859997289	28.5	28.4932889000047	28.9983734000125	30.9933638999937
9	1	9	distractor	26	Right	Right	RightArrow	1	1.94990329997381	32	31.9932761000236	32.4976530999993	34.4933609999716
10	1	10	distractor	67	Right	Right	RightArrow	1	2.09991469996748	35.5	35.4933672000188	35.9959288000246	37.9974128999747
11	1	11	distractor	68	Right			-1	0	39	38.9934763999772	39.4986821999773	41.4938105000183
12	1	12	target	69	Left	Right	RightArrow	0	2.24665539996931	42.5	42.502061599982	42.9968144000159	44.9994059000164
13	2	1	filler	30	None			NaN	0	46	45.9930418999866	46.4975475000101	48.4938637000159
14	2	2	filler	49	None			NaN	0	49.5	49.5061133999843	50.0022403000039	51.9959703999921
15	2	3	distractor	71	Right	Right	RightArrow	1	2.21599669998977	53	53.0048686999944	53.5014863000251	55.4959953000071
16	2	4	distractor	8	Right	Right	RightArrow	1	2.61261320003541	56.5	56.4934376999736	56.9980790999834	58.9979459000169
17	2	5	target	72	Left	Right	RightArrow	0	1.37298059999011	60	59.9929003000143	60.4979810999939	62.4934720000019
18	2	6	target	7	Left	Right	RightArrow	0	1.2635499999742	63.5	63.4934775999864	64.0005378000205	65.993366700015
19	2	7	distractor	50	Right	Left	LeftArrow	0	1.71388689999003	67	66.993031400023	67.4995393999852	69.4934482999961
20	2	8	target	9	Left	Right	RightArrow	0	0.471647600003053	70.5	70.4933617999777	70.9992031999864	72.9934882000089
21	2	9	target	51	Left	Left	LeftArrow	1	2.26622739998857	74	73.9933644999983	74.5008947000024	76.4940810999833
22	2	10	distractor	29	Right	Right	RightArrow	1	2.09353469999041	77.5	77.493478599994	77.9989763000049	79.9964832999976
23	2	11	distractor	70	Right	Right	RightArrow	1	1.77920980000636	81	80.9934463999816	81.4987161000026	83.4933982000221
24	2	12	target	28	Left	Right	RightArrow	0	2.31829179998022	84.5	84.4935244999942	84.9999794000178	86.9991384000168
25	3	1	filler	33	None	Left	LeftArrow	NaN	1.15343129995745	88	87.9934372999705	88.4975114000263	90.4933965000091
26	3	2	filler	54	None			NaN	0	91.5	91.4934143999708	91.9979615000193	93.9956181999878
27	3	3	distractor	75	Right	Right	RightArrow	1	1.63327180000488	95	95.0087257999694	95.5022248000023	97.4934442000231
28	3	4	distractor	10	Right	Left	LeftArrow	0	2.8545587999979	98.5	98.49337500002	98.9958861999912	100.99514850002
29	3	5	target	73	Left	Right	RightArrow	0	1.95543849997921	102	101.993372500001	102.495795199997	104.493431099982
30	3	6	target	12	Left	Left	LeftArrow	1	1.54999590001535	105.5	105.493446299981	105.999503500003	107.993452400027
31	3	7	target	74	Left	Right	RightArrow	0	2.49358070001472	109	108.993041399983	109.497860800009	111.494043099985
32	3	8	distractor	53	Right	Left	LeftArrow	0	1.9848401999916	112.5	112.493445899978	112.996356400021	114.993299100024
33	3	9	distractor	32	Right	Right	RightArrow	1	1.15103859995725	116	115.993461299979	116.497158200014	118.493501399993
34	3	10	target	52	Left	Left	LeftArrow	1	1.24595909996424	119.5	119.493369499978	119.997098200023	121.99336610001
35	3	11	target	31	Left	Right	RightArrow	0	2.96252599998843	123	122.994036899996	123.495779799996	125.497115699982
36	3	12	distractor	11	Right	Right	RightArrow	1	2.35371499997564	126.5	126.493310099992	126.99976560002	128.996292099997
37	4	1	filler	56	None			NaN	0	130	129.99305769999	130.497116399987	132.495132300013
38	4	2	filler	55	None			NaN	0	133.5	133.505675999972	133.999119499989	135.997200199985
39	4	3	distractor	13	Right			-1	0	137	137.004633500008	137.500495099986	139.498035800003
40	4	4	distractor	14	Right			-1	0	140.5	140.509199400025	141.000219199981	142.993601399998
41	4	5	distractor	78	Right	Right	RightArrow	1	0.413516499975231	144	144.004084600019	144.493443700019	146.49348200002
42	4	6	target	15	Left	Left	LeftArrow	1	1.90900039998814	147.5	147.493460000027	147.997959400003	149.993459700025
43	4	7	target	76	Left	Right	RightArrow	0	1.91607480001403	151	150.993326099997	151.497316099994	153.493658200023
44	4	8	distractor	36	Right	Right	RightArrow	1	1.56979079998564	154.5	154.493340599991	154.996500300011	156.993103899993
45	4	9	target	77	Left	Right	RightArrow	0	1.62930139998207	158	157.993209999986	158.501100299996	160.493389900017
46	4	10	target	35	Left	Right	RightArrow	0	1.89489370002411	161.5	161.493405100016	161.998011699994	163.9934106
47	4	11	distractor	57	Right			-1	0	165	164.993338999979	165.4997859	167.497953800019
48	4	12	target	34	Left	Right	RightArrow	0	2.07016839995049	168.5	168.50657909998	169.001119200024	170.993788999971
49	5	1	filler	58	None			NaN	0	172	171.993205100007	172.498072099988	174.493769399996
50	5	2	filler	18	None			NaN	0	175.5	175.508808800019	175.999936299981	177.99387950002
51	5	3	target	60	Left	Left	LeftArrow	1	0.880315500020515	179	179.003616200003	179.501100299996	181.493360400025
52	5	4	target	16	Left	Right	RightArrow	0	2.48376620002091	182.5	182.49348309997	182.997460499988	184.998342000006
53	5	5	distractor	80	Right	Left	LeftArrow	0	2.65456240001367	186	185.993055499974	186.501115199993	188.497362499998
54	5	6	target	17	Left	Right	RightArrow	0	0.0207622000016272	189.5	189.493427500012	189.993393099983	191.993450000009
55	5	7	distractor	38	Right	Right	RightArrow	1	0.354826499999035	193	192.993389800016	193.493411700008	195.493389400013
56	5	8	distractor	81	Right	Left	LeftArrow	0	1.89648359996499	196.5	196.493415999983	196.997686900024	198.993404600013
57	5	9	target	37	Left	Right	RightArrow	0	1.81729310000082	200	199.993358100008	200.49943939998	202.493456199998
58	5	10	distractor	59	Right	Left	LeftArrow	0	1.3541111999657	203.5	203.493461099977	204.000422700017	205.993441400002
59	5	11	target	39	Left	Right	RightArrow	0	0.786754600005224	207	206.99329720001	207.499308299972	209.493431899988
60	5	12	distractor	79	Right	Left	LeftArrow	0	2.23285830003442	210.5	210.49342720001	210.995954499987	212.994597600016
61	6	1	filler	42	None			NaN	0	214	213.993034999992	214.501325800025	216.500027799979
62	6	2	filler	83	None			NaN	0	217.5	217.504086899979	217.999417499988	219.998150800006
63	6	3	target	40	Left	Left	LeftArrow	1	2.31328600004781	221	221.0065588	221.497833599977	223.497828799998
64	6	4	target	84	Left	Right	RightArrow	0	2.08326119999401	224.5	224.493605100026	224.999951099977	226.996505699994
65	6	5	distractor	61	Right	Right	RightArrow	1	1.82469889998902	228	227.993498499971	228.498317399994	230.493455699994
66	6	6	target	82	Left	Left	LeftArrow	1	2.43738730001496	231.5	231.493345200026	231.996966600011	233.996046799992
67	6	7	distractor	19	Right	Left	LeftArrow	0	2.63066819997039	235	234.993973499979	235.500200700015	237.497487300017
68	6	8	distractor	41	Right	Right	RightArrow	1	1.73067820002325	238.5	238.493452799972	238.996808599972	240.993323099974
69	6	9	distractor	63	Right	Right	RightArrow	1	1.95125159999589	242	241.993473700015	242.501465899986	244.493463799998
70	6	10	distractor	21	Right			-1	0	245.5	245.493457700009	246.000656599994	247.995005399978
71	6	11	target	62	Left	Left	LeftArrow	1	1.63821439997992	249	249.006919200008	249.501590800006	251.493441900006
72	6	12	target	20	Left	Right	RightArrow	0	2.0396912000142	252.5	252.493390000018	253.001414800005	254.996085999999
