trial_id	block	trial	type	stim_id	cresp	resp	resp_raw	acc	rt	trial_start_time_expt	trial_start_time	stim_onset_time	stim_offset_time
1	1	1	filler	48	None			NaN	0	4	3.99339829996461	4.49948820000282	6.49572799995076
2	1	2	filler	68	None			NaN	0	7.5	7.51825329998974	7.99997059995076	9.99575020000339
3	1	3	target	46	Left	Left	LeftArrow	1	0.911495200009085	11	11.0089575999882	11.5026126999874	13.493482699967
4	1	4	distractor	47	Right	Right	RightArrow	1	1.24119460000657	14.5	14.4933979999623	15.0029744999483	16.9938961999724
5	1	5	distractor	26	Right	Right	RightArrow	1	1.6618684999994	18	17.9934279999579	18.4997066999786	20.4934473999892
6	1	6	distractor	27	Right	Right	RightArrow	1	1.5248856000253	21.5	21.4934332999983	22.0027623999631	23.9933519999613
7	1	7	distractor	5	Right	Right	RightArrow	1	1.10826970002381	25	24.9934230999788	25.502534899977	27.4933999999776
8	1	8	target	25	Left	Left	LeftArrow	1	1.49421550001716	28.5	28.4932627999806	28.999359999958	30.9933427999495
9	1	9	target	4	Left	Right	RightArrow	0	1.68158400000539	32	31.9934759999742	32.5015341999824	34.4934933999903
10	1	10	distractor	69	Right	Right	RightArrow	1	1.29231109999819	35.5	35.4934756999719	36.0017732999986	37.9934690999798
11	1	11	target	6	Left	Left	LeftArrow	1	1.75833879999118	39	38.993447099987	39.4971452999744	41.4935211999691
12	1	12	target	67	Left	Right	RightArrow	0	1.24547139997594	42.5	42.4934682999738	43.0022770999931	44.9934690999798
13	2	1	filler	9	None			NaN	0	46	45.9934108000016	46.5057658999576	48.4966953999829
14	2	2	filler	30	None			NaN	0	49.5	49.5038783999626	50.0038432999863	51.9972790000029
15	2	3	target	7	Left	Left	LeftArrow	1	0.916039500036277	53	53.0030263999943	53.5044730999507	55.4934280999587
16	2	4	target	28	Left	Right	RightArrow	0	1.22336820000783	56.5	56.4934128999594	57.0022355999681	58.9934763999772
17	2	5	distractor	71	Right	Right	RightArrow	1	1.44652159995167	60	59.9934127999586	60.4995179999969	62.4934774999856
18	2	6	target	29	Left	Left	LeftArrow	1	1.43560229998548	63.5	63.4933359999559	64.0037560999626	65.9931252999813
19	2	7	distractor	8	Right	Right	RightArrow	1	1.4511116000358	67	66.9933955000015	67.5000859999564	69.4934523999691
20	2	8	distractor	72	Right	Left	LeftArrow	0	1.34036169998581	70.5	70.4933941999916	71.001792999974	72.9935515999678
21	2	9	distractor	50	Right	Right	RightArrow	1	1.71437980001792	74	73.9933843999752	74.4997299999814	76.4934504999546
22	2	10	target	70	Left	Left	LeftArrow	1	2.04419340001186	77.5	77.4934821999632	77.9996814999613	79.9976913999999
23	2	11	target	49	Left	Left	LeftArrow	1	1.66616059996886	81	80.9934655999532	81.5031653000042	83.4934126999578
24	2	12	distractor	51	Right	Left	LeftArrow	0	1.15321830002358	84.5	84.4934422999504	85.0044998999801	86.9934113999479
25	3	1	filler	31	None	Right	RightArrow	NaN	1.36792599997716	88	87.9938759999932	88.5009633000009	90.4934109000023
26	3	2	filler	10	None			NaN	0	91.5	91.4934058999643	92.0016776999692	93.9985851999954
27	3	3	distractor	53	Right	Right	RightArrow	1	1.36005239997758	95	95.0089517000015	95.5012509999797	97.4934755999711
28	3	4	target	12	Left	Left	LeftArrow	1	1.22066479997011	98.5	98.4933614999754	99.0042876999942	100.993134799995
29	3	5	distractor	74	Right	Right	RightArrow	1	1.94167359999847	102	101.993504899961	102.502592899953	104.493370899989
30	3	6	target	11	Left	Right	RightArrow	0	1.86665139999241	105.5	105.493468999979	106.002571999968	107.99340529996
31	3	7	target	75	Left	Left	LeftArrow	1	1.35002479999093	109	108.993388599949	109.502384899999	111.493465899955
32	3	8	distractor	54	Right	Right	RightArrow	1	1.59574439999415	112.5	112.493543499964	113.003273399954	114.993371999997
33	3	9	distractor	32	Right	Right	RightArrow	1	2.10409639996942	116	115.993477399985	116.504018599982	118.496109500004
34	3	10	target	52	Left	Left	LeftArrow	1	1.05676720000338	119.5	119.493409999995	120.000046599947	121.99350339995
35	3	11	target	33	Left	Right	RightArrow	0	1.83827420003945	123	122.994148799975	123.49890789995	125.49338
36	3	12	distractor	73	Right	Right	RightArrow	1	1.77338849997614	126.5	126.493364199996	127.002115099982	128.993342200003
37	4	1	filler	13	None			NaN	0	130	129.993346699979	130.499592899985	132.498795399966
38	4	2	filler	14	None			NaN	0	133.5	133.506478599971	134.002446999948	135.996066399966
39	4	3	target	15	Left	Left	LeftArrow	1	1.71935739996843	137	137.010566599958	137.501587599982	139.493360199966
40	4	4	distractor	56	Right	Left	LeftArrow	0	1.70833400002448	140.5	140.493490099965	141.002526499971	142.993477599986
41	4	5	distractor	76	Right	Right	RightArrow	1	1.63615259999642	144	143.993487300002	144.503482399974	146.493459599966
42	4	6	target	55	Left	Left	LeftArrow	1	1.70223639998585	147.5	147.493467699969	147.998957399977	149.993379199994
43	4	7	target	78	Left	Right	RightArrow	0	1.67070829996374	151	150.993493999995	151.503515999997	153.49351369997
44	4	8	distractor	36	Right	Right	RightArrow	1	1.67397850000998	154.5	154.493331299978	155.00020249997	156.993454899988
45	4	9	target	77	Left	Left	LeftArrow	1	1.35276679997332	158	157.99300019996	158.501384100004	160.49340029998
46	4	10	target	35	Left	Left	LeftArrow	1	1.85694769996917	161.5	161.493426000001	162.002344299981	163.993409599992
47	4	11	distractor	34	Right			-1	0	165	164.993423799984	165.502055099991	167.493845599995
48	4	12	distractor	57	Right	Left	LeftArrow	0	1.78716619999614	168.5	168.508320499968	168.999243700004	170.993474499963
49	5	1	filler	58	None			NaN	0	172	171.993350199948	172.501486899971	174.495733699994
50	5	2	filler	81	None			NaN	0	175.5	175.508943399996	175.998726799968	177.999196599994
51	5	3	target	60	Left	Left	LeftArrow	1	2.33073560002958	179	179.009896599979	179.499413699959	181.49488969997
52	5	4	target	80	Left	Right	RightArrow	0	0.841179199982435	182.5	182.493483999977	182.99837809999	184.992972499982
53	5	5	distractor	18	Right	Left	LeftArrow	0	1.83666450000601	186	185.993432999996	186.49550119997	188.49346149998
54	5	6	distractor	16	Right	Right	RightArrow	1	1.6069708999712	189.5	189.493509099993	190.001496199984	191.993563800002
55	5	7	distractor	39	Right	Right	RightArrow	1	1.91120329999831	193	192.993394899997	193.502341399959	195.49333779997
56	5	8	target	17	Left	Left	LeftArrow	1	1.1778785000206	196.5	196.493412699958	197.004117799981	198.993439699989
57	5	9	target	38	Left	Left	LeftArrow	1	1.63751550001325	200	199.993300399976	200.504001399968	202.493461199978
58	5	10	distractor	59	Right	Right	RightArrow	1	1.2597989999922	203.5	203.493479900004	204.004639699997	205.9931813
59	5	11	target	37	Left	Right	RightArrow	0	1.42319040000439	207	206.993295099994	207.501996599953	209.493437899975
60	5	12	distractor	79	Right	Right	RightArrow	1	1.8224188000313	210.5	210.49340029998	211.000016899954	212.993453899981
61	6	1	filler	21	None			NaN	0	214	213.993379699998	214.502985299972	216.500373799994
62	6	2	filler	40	None			NaN	0	217.5	217.506969699985	217.999489499955	219.9949471
63	6	3	target	20	Left	Left	LeftArrow	1	0.966321200015955	221	221.009490499971	221.499537499971	223.493454299984
64	6	4	distractor	62	Right	Right	RightArrow	1	1.24923590000253	224.5	224.493446099979	225.002130999987	226.993270599982
65	6	5	distractor	82	Right	Left	LeftArrow	0	2.5573629999999	228	227.993557499954	228.499655599997	230.494079599972
66	6	6	target	61	Left	Right	RightArrow	0	1.48301140003605	231.5	231.493399299972	231.999589899962	233.993353399972
67	6	7	target	83	Left	Left	LeftArrow	1	2.52252699999372	235	234.993342300004	235.500967399974	237.498448400002
68	6	8	target	63	Left	Left	LeftArrow	1	1.3039534999989	238.5	238.4934488	238.998928099987	240.993465399952
69	6	9	target	84	Left	Left	LeftArrow	1	1.2268942000228	242	241.993523599987	242.499008699961	244.493365899951
70	6	10	distractor	41	Right	Left	LeftArrow	0	1.63642759999493	245.5	245.493388000003	246.002861799963	247.993482199963
71	6	11	distractor	42	Right	Left	LeftArrow	0	1.58800610003527	249	248.993385599984	249.499092599959	251.493474499963
72	6	12	distractor	19	Right	Right	RightArrow	1	1.3945684999926	252.5	252.493259099952	253.001657199988	254.993487300002
