trial_id	block	trial	type	stim_id	cresp	resp	resp_raw	acc	rt	trial_start_time_expt	trial_start_time	stim_onset_time	stim_offset_time
1	1	1	filler	5	None			NaN	0	4	3.99331200006418	4.51037009991705	6.49791250005364
2	1	2	filler	25	None			NaN	0	7.5	7.50991040002555	8.0022491000127	9.99915289995261
3	1	3	target	4	Left	Right	RightArrow	0	0.893304900033399	11	11.006297999993	11.4989833999425	13.4934131000191
4	1	4	target	27	Left	Left	LeftArrow	1	2.21452370006591	14.5	14.4940563000273	15.0005777999759	16.9992267000489
5	1	5	target	6	Left	Right	RightArrow	0	1.00590830016881	18	17.9934195000678	18.496427499922	20.4934342000633
6	1	6	distractor	48	Right	Left	LeftArrow	0	1.13932839990593	21.5	21.4933676999062	21.9970986000262	23.9934549999889
7	1	7	distractor	46	Right	Left	LeftArrow	0	1.72098189988174	25	24.9934497999493	25.5003978000022	27.493469200097
8	1	8	target	47	Left	Right	RightArrow	0	1.65536369988695	28.5	28.4930437000003	28.9994777000975	30.9934660000727
9	1	9	distractor	26	Right	Left	LeftArrow	0	1.29732760018669	32	31.9935010999907	32.4967286998872	34.4931793001015
10	1	10	distractor	67	Right	Right	RightArrow	1	1.097351500066	35.5	35.4934823999647	36.0007499998901	37.99341190001
11	1	11	distractor	68	Right	Left	LeftArrow	0	1.6105068998877	39	38.9935246999376	39.4996370000299	41.4934010000434
12	1	12	target	69	Left	Right	RightArrow	0	1.2728032998275	42.5	42.4934092001058	43.0017973000649	44.9930481000338
13	2	1	filler	30	None			NaN	0	46	45.9934272998944	46.5013586999848	48.4964513999876
14	2	2	filler	49	None			NaN	0	49.5	49.5047881999053	49.9981712000445	51.9988128000405
15	2	3	distractor	71	Right	Right	RightArrow	1	1.01778720016591	53	53.0120015998837	53.5010170999449	55.493450100068
16	2	4	distractor	8	Right	Left	LeftArrow	0	0.962118399795145	56.5	56.4933837000281	56.9964040000923	58.993465699954
17	2	5	target	72	Left	Right	RightArrow	0	1.02247050008737	60	59.9934453000315	60.5004459000193	62.4933996000327
18	2	6	target	7	Left	Left	LeftArrow	1	1.19717379985377	63.5	63.493486699881	64.0018724000547	65.9934622000437
19	2	7	distractor	50	Right	Right	RightArrow	1	0.849805599777028	67	66.9933629001025	67.5001060001086	69.4933887999505
20	2	8	target	9	Left	Left	LeftArrow	1	0.842342799995095	70.5	70.4934473000467	70.9986471000593	72.993112300057
21	2	9	target	51	Left	Right	RightArrow	0	1.7762223999016	74	73.9934876998886	74.5005083000287	76.4934028000571
22	2	10	distractor	29	Right	Right	RightArrow	1	1.09747470007278	77.5	77.4934437000193	77.9986135000363	79.9934912000317
23	2	11	distractor	70	Right	Right	RightArrow	1	0.843555599916726	81	80.9934702001046	81.4961830000393	83.4934582998976
24	2	12	target	28	Left	Left	LeftArrow	1	0.656993600074202	84.5	84.4935671999119	84.9995144000277	86.9935713000596
25	3	1	filler	33	None			NaN	0	88	87.9934660000727	88.5015080999583	90.4995615999214
26	3	2	filler	54	None			NaN	0	91.5	91.5063340000343	91.9991395000834	93.9959253999405
27	3	3	distractor	75	Right	Right	RightArrow	1	0.799708299804479	95	95.0038602000568	95.496464200085	97.4934737000149
28	3	4	distractor	10	Right	Right	RightArrow	1	1.79928909987211	98.5	98.493471799884	98.9961280000862	100.993704699911
29	3	5	target	73	Left	Left	LeftArrow	1	1.23262510006316	102	101.993036800064	102.497979599983	104.493483399972
30	3	6	target	12	Left	Right	RightArrow	0	0.762305299984291	105.5	105.493467499968	106.002284900052	107.99346700008
31	3	7	target	74	Left	Left	LeftArrow	1	0.856984999962151	109	108.993444799911	109.50150480005	111.49346440006
32	3	8	distractor	53	Right	Right	RightArrow	1	1.05824330006726	112.5	112.493294500047	112.996269399999	114.993470299989
33	3	9	distractor	32	Right	Left	LeftArrow	0	1.09369829995558	116	115.993468099972	116.498311399948	118.493405699963
34	3	10	target	52	Left	Right	RightArrow	0	1.75924360007048	119.5	119.493374000071	119.9992835999	121.993859499926
35	3	11	target	31	Left	Left	LeftArrow	1	1.11294719995931	123	122.993412100011	123.500611199997	125.493469699984
36	3	12	distractor	11	Right	Right	RightArrow	1	0.908880400005728	126.5	126.493444199907	127.002904399997	128.993393500103
37	4	1	filler	56	None			NaN	0	130	129.993530899985	130.498316900106	132.500454100082
38	4	2	filler	55	None			NaN	0	133.5	133.508091999916	133.999135799939	135.99784379988
39	4	3	distractor	13	Right	Right	RightArrow	1	0.793880800018087	137	137.004028399941	137.498450499959	139.493300599977
40	4	4	distractor	14	Right	Right	RightArrow	1	0.963683700188994	140.5	140.4930284	141.000935599906	142.99315860006
41	4	5	distractor	78	Right	Right	RightArrow	1	1.51964379986748	144	143.993474100018	144.499110100092	146.493501000106
42	4	6	target	15	Left	Left	LeftArrow	1	0.83622319996357	147.5	147.493472700007	148.001198099926	149.99349880009
43	4	7	target	76	Left	Right	RightArrow	0	0.613157900050282	151	150.993419900071	151.501149199903	153.493422300089
44	4	8	distractor	36	Right	Left	LeftArrow	0	0.897758800070733	154.5	154.493518699892	155.00180889992	156.994164200034
45	4	9	target	77	Left	Right	RightArrow	0	1.64053299999796	158	157.993611400016	158.498630800052	160.49319739989
46	4	10	target	35	Left	Left	LeftArrow	1	1.30351580004208	161.5	161.49344859994	162.00179219991	163.993452100083
47	4	11	distractor	57	Right	Right	RightArrow	1	1.25869249994867	165	164.993497200077	165.499936399981	167.493456199998
48	4	12	target	34	Left	Left	LeftArrow	1	1.19278159993701	168.5	168.493404699955	169.00169360009	170.993497400079
49	5	1	filler	58	None			NaN	0	172	171.993392199976	172.497299300041	174.494386800099
50	5	2	filler	18	None			NaN	0	175.5	175.508127900073	175.998321000021	177.997145100031
51	5	3	target	60	Left	Left	LeftArrow	1	1.17106300010346	179	179.007277099881	179.498875299934	181.493468000088
52	5	4	target	16	Left	Right	RightArrow	0	0.667398700024933	182.5	182.493487499887	182.999239000026	184.993467200082
53	5	5	distractor	80	Right	Right	RightArrow	1	1.3606402000878	186	185.993376800092	186.5016665	188.493476799922
54	5	6	target	17	Left	Left	LeftArrow	1	1.06585810007527	189.5	189.493487099884	189.999408100033	191.993475999916
55	5	7	distractor	38	Right	Right	RightArrow	1	0.881459899945185	193	192.994019200094	193.498562199995	195.493028299883
56	5	8	distractor	81	Right	Left	LeftArrow	0	0.950349200051278	196.5	196.493350500008	196.9993447999	198.993248000043
57	5	9	target	37	Left	Right	RightArrow	0	1.26399260014296	200	199.993350599892	200.501661299961	202.493449500063
58	5	10	distractor	59	Right	Left	LeftArrow	0	1.33657859987579	203.5	203.493483799975	203.997744600056	205.993128400063
59	5	11	target	39	Left	Right	RightArrow	0	0.981372700072825	207	206.993033400038	207.499998999992	209.493477300042
60	5	12	distractor	79	Right	Right	RightArrow	1	1.42251250008121	210.5	210.49349709996	210.998098599957	212.993503500009
61	6	1	filler	42	None			NaN	0	214	213.993477100041	214.499490099959	216.49788359995
62	6	2	filler	83	None			NaN	0	217.5	217.503884499893	217.999725200003	219.994245999958
63	6	3	target	40	Left	Left	LeftArrow	1	0.895973299862817	221	221.005708599929	221.499413300073	223.493698799983
64	6	4	target	84	Left	Left	LeftArrow	1	1.16267970018089	224.5	224.49340980011	224.995352699887	226.993373299949
65	6	5	distractor	61	Right	Right	RightArrow	1	1.42194269993342	228	227.99334340007	228.499335800065	230.493036600063
66	6	6	target	82	Left	Left	LeftArrow	1	1.58111140015535	231.5	231.493455100106	232.00221639988	233.993366299896
67	6	7	distractor	19	Right	Right	RightArrow	1	1.21865379996598	235	234.993455999997	235.501795199933	237.493492400041
68	6	8	distractor	41	Right	Left	LeftArrow	0	1.37293879990466	238.5	238.493485700106	238.998975099996	240.993344400078
69	6	9	distractor	63	Right	Left	LeftArrow	0	0.97661089990288	242	241.993415100034	242.497724500019	244.49308819999
70	6	10	distractor	21	Right	Left	LeftArrow	0	1.40293719992042	245.5	245.493267900078	245.999628500082	247.993493400048
71	6	11	target	62	Left	Right	RightArrow	0	0.663383400067687	249	248.993392399978	249.501486100024	251.493465400068
72	6	12	target	20	Left	Left	LeftArrow	1	1.12763680005446	252.5	252.493486199994	252.999302099925	254.993479900062
