trial_id	block	trial	type	stim_id	cresp	resp	resp_raw	acc	rt	trial_start_time_expt	trial_start_time	stim_onset_time	stim_offset_time
1	1	1	filler	5	None			NaN	0	4	3.99304510001093	4.52044670004398	6.49450659984723
2	1	2	filler	25	None			NaN	0	7.5	7.51006700005382	8.00381170003675	9.99502559984103
3	1	3	target	4	Left	Right	RightArrow	0	0.884837100049481	11	11.0058110998943	11.4974795000162	13.4934139000252
4	1	4	target	27	Left	Right	RightArrow	0	1.85802409984171	14.5	14.4936704998836	14.9986437000334	16.9936699999962
5	1	5	target	6	Left			-1	0	18	17.9934874000028	18.4993996999692	20.4997129999101
6	1	6	distractor	48	Right	Left	LeftArrow	0	1.24600789998658	21.5	21.5097083998844	21.9961260999553	23.9934149000328
7	1	7	distractor	46	Right	Right	RightArrow	1	1.87829010002315	25	24.9934900999069	25.499293099856	27.4934479999356
8	1	8	target	47	Left	Left	LeftArrow	1	1.03699030005373	28.5	28.4930558998603	29.0018253999297	30.9935615998693
9	1	9	distractor	26	Right	Right	RightArrow	1	1.68877200013958	32	31.993482099846	32.4973493998405	34.4934175000526
10	1	10	distractor	67	Right	Right	RightArrow	1	1.34413089998998	35.5	35.4937597999815	35.9989163000137	37.9930342000443
11	1	11	distractor	68	Right	Right	RightArrow	1	1.42372120008804	39	38.9933680999093	39.500897699967	41.4934525999706
12	1	12	target	69	Left	Right	RightArrow	0	1.41019079997204	42.5	42.4934512998443	42.9979383000173	44.9934950000606
13	2	1	filler	30	None			NaN	0	46	45.9934228998609	46.5007078000344	48.4947786999401
14	2	2	filler	49	None			NaN	0	49.5	49.5057546000462	49.9977712000255	51.997507999884
15	2	3	distractor	71	Right	Right	RightArrow	1	2.15627550007775	53	53.0060429999139	53.4984393999912	55.4975729000289
16	2	4	distractor	8	Right	Left	LeftArrow	0	1.09689609985799	56.5	56.4934223999735	57.0007817000151	58.9934674999677
17	2	5	target	72	Left			-1	0	60	59.9934638999403	60.4992287000641	62.4981646998785
18	2	6	target	7	Left	Right	RightArrow	0	0.805153400171548	63.5	63.5034940999467	63.9979150998406	65.9933686000295
19	2	7	distractor	50	Right	Right	RightArrow	1	1.73500319989398	67	66.9934399998747	67.4975411000196	69.4935717000626
20	2	8	target	9	Left	Left	LeftArrow	1	1.66930789989419	70.5	70.4930397998542	70.9999569000211	72.9934312999249
21	2	9	target	51	Left	Right	RightArrow	0	1.57805579993874	74	73.9934268998913	74.5009123999625	76.4934177000541
22	2	10	distractor	29	Right	Left	LeftArrow	0	1.98430089978501	77.5	77.4933497998863	77.9980671000667	79.993317599874
23	2	11	distractor	70	Right	Right	RightArrow	1	1.89117470011115	81	80.9933821000159	81.4988094998989	83.4933583999518
24	2	12	target	28	Left	Left	LeftArrow	1	1.55196779989637	84.5	84.4930707998574	85.001354200067	86.9930533999577
25	3	1	filler	33	None			NaN	0	88	87.9934677998535	88.50076789991	90.4979941998608
26	3	2	filler	54	None			NaN	0	91.5	91.4984375999775	91.9968258000445	93.9977955999784
27	3	3	distractor	75	Right	Right	RightArrow	1	1.72873769979924	95	95.0056431000121	95.49983970006	97.4934789000545
28	3	4	distractor	10	Right	Right	RightArrow	1	2.02834640000947	98.5	98.4931288999505	98.9961757999845	100.99680159986
29	3	5	target	73	Left	Left	LeftArrow	1	1.80601259996183	102	101.993631900055	102.500412299996	104.493433200056
30	3	6	target	12	Left	Right	RightArrow	0	1.12410949985497	105.5	105.493574999971	105.995108200004	107.993659700034
31	3	7	target	74	Left	Left	LeftArrow	1	1.80327029991895	109	108.993741599843	109.499402099987	111.493478199933
32	3	8	distractor	53	Right	Right	RightArrow	1	1.6352092998568	112.5	112.493455999997	112.997973300051	114.993469599867
33	3	9	distractor	32	Right	Left	LeftArrow	0	1.41356449993327	116	115.99346560007	116.500143900048	118.494580599945
34	3	10	target	52	Left	Left	LeftArrow	1	2.25745850009844	119.5	119.493481699843	120.002464199904	121.997606599936
35	3	11	target	31	Left	Left	LeftArrow	1	1.55270499992184	123	122.993856400019	123.497447700007	125.493481999962
36	3	12	distractor	11	Right	Right	RightArrow	1	1.39502790011466	126.5	126.493448100053	126.999416299863	128.993478700053
37	4	1	filler	56	None			NaN	0	130	129.993501899997	130.497398599982	132.495072499849
38	4	2	filler	55	None			NaN	0	133.5	133.507567299996	134.002330800053	135.998089500004
39	4	3	distractor	13	Right	Right	RightArrow	1	0.805093200178817	137	137.000251000049	137.49800809985	139.493528499966
40	4	4	distractor	14	Right	Right	RightArrow	1	1.19582239980809	140.5	140.493385100039	140.998676100047	142.993811399909
41	4	5	distractor	78	Right	Right	RightArrow	1	1.02836040011607	144	143.993107799906	144.498242799891	146.493056599982
42	4	6	target	15	Left	Left	LeftArrow	1	1.22511769994162	147.5	147.493028199999	147.996711499989	149.993422199972
43	4	7	target	76	Left	Right	RightArrow	0	1.16652760002762	151	150.99346040003	151.499190300005	153.49348129984
44	4	8	distractor	36	Right	Left	LeftArrow	0	2.20055530010723	154.5	154.493351900019	154.996292399941	156.99899880006
45	4	9	target	77	Left	Left	LeftArrow	1	0.932565300026909	158	157.993051199941	158.49793159985	160.493459600024
46	4	10	target	35	Left	Right	RightArrow	0	1.77868139999919	161.5	161.493389899842	161.995871699881	163.993436199846
47	4	11	distractor	57	Right	Left	LeftArrow	0	0.901059600058943	165	164.993416700047	165.500133499969	167.49304839992
48	4	12	target	34	Left	Right	RightArrow	0	0.803511600010097	168.5	168.493383999914	169.0024309	170.993359899847
49	5	1	filler	58	None			NaN	0	172	171.993513099849	172.50247419998	174.497602399904
50	5	2	filler	18	None			NaN	0	175.5	175.508748400025	176.000204599928	177.999755199999
51	5	3	target	60	Left	Left	LeftArrow	1	1.50414759991691	179	179.008925599977	179.498098199954	181.493290700018
52	5	4	target	16	Left	Right	RightArrow	0	1.32471509999596	182.5	182.493446399923	182.997278399998	184.993047100026
53	5	5	distractor	80	Right	Right	RightArrow	1	1.26559130009264	186	185.993487600004	186.49881489994	188.493428200018
54	5	6	target	17	Left	Right	RightArrow	0	2.49536469997838	189.5	189.493471999886	190.001061900053	191.99700429989
55	5	7	distractor	38	Right	Left	LeftArrow	0	1.01408150000498	193	192.993386700051	193.498469399987	195.49350059987
56	5	8	distractor	81	Right			-1	0	196.5	196.493058399996	196.996833799873	198.994102499913
57	5	9	target	37	Left	Left	LeftArrow	1	1.79060370009392	200	200.004605999915	200.497291399864	202.493448300054
58	5	10	distractor	59	Right	Left	LeftArrow	0	0.577484800014645	203.5	203.493464499945	204.000593899982	205.993208899861
59	5	11	target	39	Left	Right	RightArrow	0	1.56210159999318	207	206.993501499994	207.497094299877	209.493067899952
60	5	12	distractor	79	Right	Right	RightArrow	1	2.19227760005742	210.5	210.493372200057	211.001465099864	212.994451300008
61	6	1	filler	42	None			NaN	0	214	213.994000500068	214.497824099846	216.495615999913
62	6	2	filler	83	None	Right	RightArrow	NaN	1.57795780012384	217.5	217.509183899965	218.00074739987	219.993428499904
63	6	3	target	40	Left	Left	LeftArrow	1	1.93952220003121	221	220.993173100054	221.499951199861	223.493415799923
64	6	4	target	84	Left			-1	0	224.5	224.49345469987	225.00265449984	226.995788499946
65	6	5	distractor	61	Right	Left	LeftArrow	0	0.865601599914953	228	228.006135799922	228.500466000056	230.49344599992
66	6	6	target	82	Left	Right	RightArrow	0	1.50113689992577	231.5	231.493468099972	232.000955600059	233.993477100041
67	6	7	distractor	19	Right	Right	RightArrow	1	2.11132160015404	235	234.99338079989	235.500960599864	237.499729299918
68	6	8	distractor	41	Right	Left	LeftArrow	0	2.09086280013435	238.5	238.493458899902	239.000616099918	240.995810199995
69	6	9	distractor	63	Right	Right	RightArrow	1	1.10208559990861	242	241.993342099944	242.499543800019	244.493697899859
70	6	10	distractor	21	Right	Right	RightArrow	1	2.20534029998817	245.5	245.493349900004	245.996904399944	247.997321199859
71	6	11	target	62	Left	Left	LeftArrow	1	1.97193269990385	249	248.993442900013	249.497851399938	251.493435299955
72	6	12	target	20	Left	Right	RightArrow	0	1.5634638001211	252.5	252.493414300028	252.997591899941	254.993602199946
