trial_id	block	trial	type	stim_id	cresp	resp	resp_raw	acc	rt	trial_start_time_expt	trial_start_time	stim_onset_time	stim_offset_time
1	1	1	filler	48	None			NaN	0	4	3.99295840004925	4.50226169999223	6.49946700001601
2	1	2	filler	68	None			NaN	0	7.5	7.51175850001164	7.99688560003415	9.99819139996544
3	1	3	target	46	Left	Right	RightArrow	0	1.43603099999018	11	11.0104552999837	11.5024068000494	13.4934553999919
4	1	4	distractor	47	Right	Right	RightArrow	1	1.44028580002487	14.5	14.493433100055	15.0002718999749	16.9934548999881
5	1	5	distractor	26	Right	Right	RightArrow	1	1.70436510001309	18	17.993445900036	18.5036431000335	20.4940646999748
6	1	6	distractor	27	Right	Left	LeftArrow	0	0.847606499912217	21.5	21.4935984000331	22.0008483000565	23.9934235999826
7	1	7	distractor	5	Right	Right	RightArrow	1	0.463164199958555	25	24.9933888999512	25.504364100052	27.4933302999707
8	1	8	target	25	Left	Left	LeftArrow	1	0.509407699923031	28.5	28.493403499946	28.9998392000562	30.9934606000315
9	1	9	target	4	Left	Left	LeftArrow	1	0.386681900010444	32	31.9933658000082	32.5040482999757	34.4934495999478
10	1	10	distractor	69	Right	Right	RightArrow	1	0.150402200059034	35.5	35.4933707000455	36.0007622999838	37.9934472000459
11	1	11	target	6	Left	Right	RightArrow	0	0.462866200017743	39	38.9932178000454	39.4992526000133	41.4933617999777
12	1	12	target	67	Left	Left	LeftArrow	1	1.37170399993192	42.5	42.4933640999952	43.0019491000567	44.9934582000133
13	2	1	filler	9	None	Right	RightArrow	NaN	2.18619150004815	46	45.9934373999713	46.5021807999583	48.4939511000412
14	2	2	filler	30	None			NaN	0	49.5	49.4934529999737	50.0003945999779	51.9976084999507
15	2	3	target	7	Left	Right	RightArrow	0	0.505905800033361	53	53.0122339000227	53.5049718000228	55.4943233999657
16	2	4	target	28	Left	Left	LeftArrow	1	0.623717200011015	56.5	56.4938502999721	57.0030724999961	58.9934696999844
17	2	5	distractor	71	Right	Right	RightArrow	1	0.452670999919064	60	59.9933959000045	60.5024824000429	62.4934472000459
18	2	6	target	29	Left	Left	LeftArrow	1	0.547072599991225	63.5	63.4934015000472	64.0044596999651	65.9935775999911
19	2	7	distractor	8	Right	Right	RightArrow	1	0.530226400005631	67	66.9934418000048	67.5019876000006	69.4935122999595
20	2	8	distractor	72	Right	Left	LeftArrow	0	0.807605099980719	70.5	70.4934905000264	71.0018623999786	72.9936424000189
21	2	9	distractor	50	Right	Right	RightArrow	1	0.774561599944718	74	73.9934580000117	74.5050964000402	76.4936657999642
22	2	10	target	70	Left	Left	LeftArrow	1	1.86116230010521	77.5	77.4935515000252	78.004763099947	79.9934006000403
23	2	11	target	49	Left	Right	RightArrow	0	1.28831700002775	81	80.9934489000589	81.4995664999587	83.4934104999993
24	2	12	distractor	51	Right	Left	LeftArrow	0	0.559258199995384	84.5	84.4934346999507	85.0025112000294	86.9935326999985
25	3	1	filler	31	None			NaN	0	88	87.993497199961	88.5056222999701	90.4973136000335
26	3	2	filler	10	None			NaN	0	91.5	91.5120628000004	92.0040927999653	93.9959106000606
27	3	3	distractor	53	Right	Right	RightArrow	1	1.08601450000424	95	95.0101243000245	95.5042503000004	97.4936643999536
28	3	4	target	12	Left	Left	LeftArrow	1	0.56429929996375	98.5	98.4934067999711	99.0046386000467	100.993670700002
29	3	5	distractor	74	Right	Right	RightArrow	1	0.723625799990259	102	101.993612400023	102.500296600047	104.493410299998
30	3	6	target	11	Left	Left	LeftArrow	1	0.609525299980305	105.5	105.493431600044	106.001382000046	107.993426300003
31	3	7	target	75	Left	Right	RightArrow	0	0.459201200050302	109	108.993377499981	109.504595099948	111.493436199962
32	3	8	distractor	54	Right	Right	RightArrow	1	0.256226999917999	112.5	112.493431900046	113.005064800032	114.993526799954
33	3	9	distractor	32	Right	Left	LeftArrow	0	0.905414799926803	116	115.993434799952	116.505171400029	118.493545799982
34	3	10	target	52	Left	Left	LeftArrow	1	0.740585299907252	119.5	119.493906800053	120.00207050005	121.993446000037
35	3	11	target	33	Left	Right	RightArrow	0	0.377680699923076	123	122.994718399947	123.505342600052	125.493010899983
36	3	12	distractor	73	Right	Left	LeftArrow	0	1.11408560001291	126.5	126.49346649996	127.005466299946	128.993431500043
37	4	1	filler	13	None			NaN	0	130	129.993467199965	130.505083200056	132.495164399967
38	4	2	filler	14	None			NaN	0	133.5	133.506162300007	134.002523600007	135.99712840002
39	4	3	target	15	Left	Right	RightArrow	0	0.834507899940945	137	137.007131300052	137.50483250001	139.49342199997
40	4	4	distractor	56	Right	Left	LeftArrow	0	1.25301860005129	140.5	140.49371109996	141.0008867	142.993659400032
41	4	5	distractor	76	Right	Right	RightArrow	1	1.01718399999663	144	143.993418100057	144.505759499967	146.493550500018
42	4	6	target	55	Left	Left	LeftArrow	1	1.11097879998852	147.5	147.493600500049	148.004535199958	149.993461300037
43	4	7	target	78	Left	Right	RightArrow	0	1.32159030006733	151	150.993514799979	151.500409399974	153.49342459999
44	4	8	distractor	36	Right	Right	RightArrow	1	1.11273459997028	154.5	154.49346649996	155.00514230004	156.993399800034
45	4	9	target	77	Left	Left	LeftArrow	1	1.12310780002736	158	157.993576499983	158.503759599989	160.493485199986
46	4	10	target	35	Left	Right	RightArrow	0	1.47272530000191	161.5	161.493649399956	162.00517150003	163.993839700008
47	4	11	distractor	34	Right	Left	LeftArrow	0	0.983118999982253	165	164.993389199954	165.500775999972	167.493399800034
48	4	12	distractor	57	Right	Left	LeftArrow	0	0.709364000009373	168.5	168.493411000003	169.004688899964	170.993417000049
49	5	1	filler	58	None			NaN	0	172	171.993422299973	172.505399800022	174.494247199968
50	5	2	filler	81	None			NaN	0	175.5	175.510187700042	176.004599499982	177.995164099964
51	5	3	target	60	Left	Right	RightArrow	0	0.625723700039089	179	179.010920700035	179.498877699953	181.493747900007
52	5	4	target	80	Left	Left	LeftArrow	1	1.08582629996818	182.5	182.493581200019	183.002314600046	184.993414600031
53	5	5	distractor	18	Right	Left	LeftArrow	0	1.01327380002476	186	185.993736400036	186.502164599951	188.493418300059
54	5	6	distractor	16	Right	Left	LeftArrow	0	1.25658229994588	189.5	189.493406499969	190.001437700004	191.993428300018
55	5	7	distractor	39	Right	Left	LeftArrow	0	0.815840400056913	193	192.993373199948	193.497932899976	195.494172499981
56	5	8	target	17	Left	Right	RightArrow	0	0.506296799983829	196.5	196.493858300033	197.005832100054	198.993715299992
57	5	9	target	38	Left	Left	LeftArrow	1	1.02429420000408	200	199.993400100037	200.50568079995	202.493406399968
58	5	10	distractor	59	Right	Right	RightArrow	1	0.823219500016421	203.5	203.493416200043	204.005069899955	205.994022500003
59	5	11	target	37	Left			-1	0	207	206.99333810003	207.504070500028	209.495747399982
60	5	12	distractor	79	Right	Right	RightArrow	1	0.122324800002389	210.5	210.506228000042	211.006357199978	212.993431800045
61	6	1	filler	21	None			NaN	0	214	213.993455799995	214.503114199964	216.498806799995
62	6	2	filler	40	None			NaN	0	217.5	217.509709900012	218.001893899986	219.998005000059
63	6	3	target	20	Left	Right	RightArrow	0	1.55535170005169	221	221.008974900004	221.504813999985	223.493531199987
64	6	4	distractor	62	Right	Right	RightArrow	1	1.42050339991692	224.5	224.493402900058	225.004897100036	226.993768700049
65	6	5	distractor	82	Right	Right	RightArrow	1	1.02987839991692	228	227.993438099977	228.499591700034	230.493569600047
66	6	6	target	61	Left	Right	RightArrow	0	1.17901019996498	231.5	231.493570300052	232.002582199988	233.994004899985
67	6	7	target	83	Left	Right	RightArrow	0	1.05831270001363	235	234.993759099976	235.505799100036	237.493410399999
68	6	8	target	63	Left	Left	LeftArrow	1	1.41756349999923	238.5	238.493425699999	239.003352600033	240.993408199982
69	6	9	target	84	Left	Right	RightArrow	0	1.40894389990717	242	241.993402300053	242.504378500045	244.493446700042
70	6	10	distractor	41	Right	Right	RightArrow	1	2.32556049991399	245.5	245.49344780005	245.999853300047	247.997396399966
71	6	11	distractor	42	Right	Left	LeftArrow	0	2.04155920003541	249	248.993850899977	249.500782700023	251.499346200028
72	6	12	distractor	19	Right	Right	RightArrow	1	0.429390999954194	252.5	252.493717600009	253.001719300053	254.993416100042
