trial_id	block	trial	type	stim_id	cresp	resp	resp_raw	acc	rt	trial_start_time_expt	trial_start_time	stim_onset_time	stim_offset_time
1	1	1	filler	5	None			NaN	0	4	3.99333350000006	4.52327390000005	6.49922409999999
2	1	2	filler	25	None			NaN	0	7.5	7.51421040000002	8.00528070000007	9.99465659999998
3	1	3	target	4	Left	Left	LeftArrow	1	2.30407079999998	11	11.0073652	11.4989522000001	13.4986222
4	1	4	target	27	Left	Left	LeftArrow	1	1.18564429999992	14.5	14.4934509	15.0017925000001	16.9930890000001
5	1	5	target	6	Left	Left	LeftArrow	1	0.853041499999904	18	17.9934814000001	18.4970996000001	20.4934236
6	1	6	distractor	48	Right	Right	RightArrow	1	1.13121310000008	21.5	21.4933788000001	21.9996212	23.9934142000001
7	1	7	distractor	46	Right	Right	RightArrow	1	1.65649289999999	25	24.9934524	25.4966055	27.4934485
8	1	8	target	47	Left	Left	LeftArrow	1	1.35933650000004	28.5	28.4934719	28.9989571	30.9934873000001
9	1	9	distractor	26	Right			-1	0	32	31.9930823000001	32.4993209	34.4951226000001
10	1	10	distractor	67	Right	Left	LeftArrow	0	2.06325719999995	35.5	35.5090726000001	35.9962966000001	37.9952338000001
11	1	11	distractor	68	Right	Right	RightArrow	1	1.0224197	39	38.9933902	39.5005582	41.4934835
12	1	12	target	69	Left	Left	LeftArrow	1	0.394598299999984	42.5	42.4934052	42.9961668000001	44.9931037
13	2	1	filler	30	None	Right	RightArrow	NaN	1.54100410000001	46	45.9934903000001	46.4982813	48.4934169000001
14	2	2	filler	49	None			NaN	0	49.5	49.4934258000001	49.9969481000001	51.9945835
15	2	3	distractor	71	Right	Left	LeftArrow	0	1.00774739999997	53	53.0000967	53.5006411000001	55.4930643
16	2	4	distractor	8	Right	Right	RightArrow	1	1.40207450000003	56.5	56.4933618	56.9995444	58.9934430000001
17	2	5	target	72	Left	Left	LeftArrow	1	1.71318020000001	60	59.9934873000001	60.4995141000001	62.493481
18	2	6	target	7	Left	Right	RightArrow	0	1.71389469999997	63.5	63.4934027	63.9972601000001	65.9934975
19	2	7	distractor	50	Right	Right	RightArrow	1	1.34661960000005	67	66.9934448	67.5006968	69.4933921000001
20	2	8	target	9	Left	Left	LeftArrow	1	1.40522640000006	70.5	70.493498	70.9961856	72.9932142
21	2	9	target	51	Left	Left	LeftArrow	1	1.68851610000002	74	73.9934993000001	74.49711	76.4934796
22	2	10	distractor	29	Right	Right	RightArrow	1	1.17153529999996	77.5	77.4934759	77.9959776000001	79.9934304000001
23	2	11	distractor	70	Right	Left	LeftArrow	0	1.40648269999997	81	80.9934061	81.4990324	83.4936613
24	2	12	target	28	Left	Right	RightArrow	0	1.11094900000001	84.5	84.4934098	84.9960497000001	86.9936012000001
25	3	1	filler	33	None	Right	RightArrow	NaN	1.41448460000015	88	87.9934327	88.4969106999999	90.4934158999999
26	3	2	filler	54	None	Left	LeftArrow	NaN	1.56387790000008	91.5	91.4934448000001	91.9967816999999	93.9930555000001
27	3	3	distractor	75	Right	Left	LeftArrow	0	1.80345080000006	95	94.9932080000001	95.4985909	97.4933492
28	3	4	distractor	10	Right	Right	RightArrow	1	1.39578780000011	98.5	98.4934883000001	98.9998005	100.9933525
29	3	5	target	73	Left	Left	LeftArrow	1	1.25571690000015	102	101.9935044	102.4960411	104.4935116
30	3	6	target	12	Left	Right	RightArrow	0	0.774319599999899	105.5	105.4935053	105.9984939	107.993329
31	3	7	target	74	Left	Left	LeftArrow	1	1.01448289999985	109	108.9934978	109.4985739	111.4934949
32	3	8	distractor	53	Right	Right	RightArrow	1	1.6895876000001	112.5	112.4930794	112.9992955	114.993465
33	3	9	distractor	32	Right	Right	RightArrow	1	1.11139509999998	116	115.9934041	116.5014443	118.4934853
34	3	10	target	52	Left	Right	RightArrow	0	1.59388039999999	119.5	119.4934707	119.9962713	121.9935718
35	3	11	target	31	Left	Left	LeftArrow	1	0.962566299999935	123	122.9934658	123.5010898	125.4934568
36	3	12	distractor	11	Right	Right	RightArrow	1	1.85705680000001	126.5	126.4934379	126.9961719	128.9933494
37	4	1	filler	56	None	Right	RightArrow	NaN	1.3086272999999	130	129.9934562	130.4970594	132.4933345
38	4	2	filler	55	None			NaN	0	133.5	133.4934154	133.9999352	135.9992992
39	4	3	distractor	13	Right	Right	RightArrow	1	1.6901863999999	137	137.0072151	137.4966749	139.4934729
40	4	4	distractor	14	Right	Right	RightArrow	1	1.13019269999995	140.5	140.4935049	140.9990236	142.993503
41	4	5	distractor	78	Right	Left	LeftArrow	0	1.29681849999997	144	143.993398	144.502556	146.4934114
42	4	6	target	15	Left	Right	RightArrow	0	1.04969140000003	147.5	147.4934102	148.0003052	149.9931071
43	4	7	target	76	Left	Right	RightArrow	0	1.28266529999996	151	150.9934852	151.4986818	153.4934885
44	4	8	distractor	36	Right	Right	RightArrow	1	0.997291200000063	154.5	154.493596	154.9982522	156.9935502
45	4	9	target	77	Left	Right	RightArrow	0	2.0475163000001	158	157.9935487	158.4961592	160.4979993
46	4	10	target	35	Left	Left	LeftArrow	1	1.8405687999998	161.5	161.4934211	161.999095	163.9933555
47	4	11	distractor	57	Right	Left	LeftArrow	0	1.03061060000005	165	164.9933663	165.499423	167.4934381
48	4	12	target	34	Left	Right	RightArrow	0	0.946296900000107	168.5	168.4934268	169.0018696	170.9933707
49	5	1	filler	58	None	Left	LeftArrow	NaN	1.41336260000003	172	171.9933169	172.5003614	174.4934992
50	5	2	filler	18	None	Right	RightArrow	NaN	0.696924399999943	175.5	175.493493	175.9949491	177.9931029
51	5	3	target	60	Left			-1	0	179	178.9934206	179.5004542	181.4992176
52	5	4	target	16	Left	Right	RightArrow	0	2.04824600000006	182.5	182.5062509	182.9963293	184.9997665
53	5	5	distractor	80	Right	Right	RightArrow	1	1.29574819999993	186	185.9933867	186.4984776	188.4934938
54	5	6	target	17	Left	Right	RightArrow	0	1.7062719999999	189.5	189.4935841	189.9969694	191.9934853
55	5	7	distractor	38	Right	Right	RightArrow	1	1.4429682	193	192.9935824	193.4965741	195.4937278
56	5	8	distractor	81	Right	Left	LeftArrow	0	0.918795399999908	196.5	196.4933448	197.0020514	198.9934529
57	5	9	target	37	Left			-1	0	200	199.9933757	200.497233	202.4994922
58	5	10	distractor	59	Right	Right	RightArrow	1	1.85550069999999	203.5	203.5068502	203.9978825	205.9934991
59	5	11	target	39	Left	Left	LeftArrow	1	1.81370220000008	207	206.993058	207.4995961	209.4934647
60	5	12	distractor	79	Right	Right	RightArrow	1	1.21720470000014	210.5	210.4933151	210.9989108	212.9934958
61	6	1	filler	42	None	Left	LeftArrow	NaN	1.95712690000005	214	213.9935127	214.4958837	216.493477
62	6	2	filler	83	None	Right	RightArrow	NaN	0.95328470000004	217.5	217.4934398	218.0000352	219.9933869
63	6	3	target	40	Left	Left	LeftArrow	1	1.93753519999996	221	220.9934155	221.4982955	223.4933907
64	6	4	target	84	Left	Right	RightArrow	0	0.974727100000109	224.5	224.4934004	225.0014085	226.9940355
65	6	5	distractor	61	Right	Right	RightArrow	1	1.27365899999995	228	227.993446	228.4971247	230.4939773
66	6	6	target	82	Left	Left	LeftArrow	1	1.46322239999995	231.5	231.4934881	231.9997263	233.9933651
67	6	7	distractor	19	Right	Right	RightArrow	1	1.25634330000003	235	234.9931535	235.4979807	237.4934652
68	6	8	distractor	41	Right	Right	RightArrow	1	2.19568079999999	238.5	238.4934592	239.0011382	240.9970395
69	6	9	distractor	63	Right	Left	LeftArrow	0	0.856291700000156	242	241.9938868	242.496952	244.4930352
70	6	10	distractor	21	Right	Right	RightArrow	1	1.65594370000008	245.5	245.4933878	245.9989255	247.9931772
71	6	11	target	62	Left	Right	RightArrow	0	1.9789209999999	249	248.9934296	249.4957666	251.4934631
72	6	12	target	20	Left	Left	LeftArrow	1	0.651397200000019	252.5	252.4934641	253.0003522	254.9934943
