trial_id	block	trial	type	stim_id	cresp	resp	resp_raw	acc	rt	trial_start_time_expt	trial_start_time	stim_onset_time	stim_offset_time
1	1	1	filler	41	None			NaN	0	4	3.99338900018483	4.49870760017075	6.49428280000575
2	1	2	filler	42	None			NaN	0	7.5	7.50706110009924	8.0037368000485	9.99391810013913
3	1	3	distractor	5	Right	Right	RightArrow	1	0.881405799882486	11	11.0011014000047	11.5028717000969	13.4933825000189
4	1	4	target	43	Left	Left	LeftArrow	1	0.942668200004846	14.5	14.4934816001914	15.0034543001093	16.9933913999703
5	1	5	target	7	Left	Right	RightArrow	0	1.43367469985969	18	17.993483700091	18.5002525001764	20.4935888000764
6	1	6	distractor	6	Right	Right	RightArrow	1	1.39064670004882	21.5	21.4934167000465	21.9986312000547	23.9930565999821
7	1	7	target	9	Left	Left	LeftArrow	1	1.15014669997618	25	24.9929274001624	25.5000941001344	27.4934626000468
8	1	8	distractor	45	Right	Right	RightArrow	1	1.14371849992312	28.5	28.4934364999644	28.9994262000546	30.9934674000833
9	1	9	distractor	44	Right	Right	RightArrow	1	1.40530610014684	32	31.9934137000237	32.4974001999944	34.4933803000022
10	1	10	distractor	10	Right	Left	LeftArrow	0	1.4388071000576	35.5	35.4934161000419	36.0005630999804	37.9930358000565
11	1	11	target	46	Left	Right	RightArrow	0	1.46094330004416	39	38.9933898001909	39.5002584999893	41.4934513999615
12	1	12	target	8	Left	Left	LeftArrow	1	1.5595813000109	42.5	42.4935040001292	43.0032952001784	44.9934571001213
13	2	1	filler	51	None	Left	LeftArrow	NaN	1.38788899988867	46	45.9934584000148	46.5007750000805	48.4934584000148
14	2	2	filler	12	None			NaN	0	49.5	49.4934076000936	50.0006465001497	51.9988140000496
15	2	3	distractor	14	Right	Right	RightArrow	1	1.76728450017981	53	53.0065272999927	53.5023970999755	55.4933993001468
16	2	4	distractor	47	Right	Left	LeftArrow	0	1.61916700005531	56.5	56.4936055999715	57.0002405999694	58.9936167001724
17	2	5	distractor	49	Right	Left	LeftArrow	0	1.16178969992325	60	59.9934702001046	60.5015952000394	62.4933595000766
18	2	6	target	52	Left	Left	LeftArrow	1	1.7338938000612	63.5	63.4934680999722	63.9979656999931	65.9934559001122
19	2	7	target	50	Left	Left	LeftArrow	1	1.15782799990848	67	66.9933989001438	67.4995358001906	69.4933275000658
20	2	8	target	48	Left	Left	LeftArrow	1	1.05025459988974	70.5	70.493393199984	70.9995685000904	72.9934380999766
21	2	9	distractor	16	Right	Right	RightArrow	1	0.610429699998349	74	73.99352680007	74.4995801001787	76.4934575001244
22	2	10	distractor	13	Right	Left	LeftArrow	0	1.23149239993654	77.5	77.4933945001103	77.9982193000615	79.9934733000118
23	2	11	target	11	Left	Left	LeftArrow	1	1.14978999993764	81	80.9934460001532	81.4978209000546	83.4934535999782
24	2	12	target	15	Left	Left	LeftArrow	1	1.28262620000169	84.5	84.4933756000828	84.9983672001399	86.9933982000221
25	3	1	filler	17	None			NaN	0	88	87.9931699000299	88.4993504001759	90.4961800000165
26	3	2	filler	57	None			NaN	0	91.5	91.5040276001673	91.9986672999803	93.9971776001621
27	3	3	distractor	53	Right	Right	RightArrow	1	0.902303399983793	95	95.0073603000492	95.5009063000325	97.4934551999904
28	3	4	distractor	20	Right	Left	LeftArrow	0	1.85159490001388	98.5	98.4934289001394	99.003316400107	100.993419900071
29	3	5	target	58	Left	Left	LeftArrow	1	2.52979159983806	102	101.993494900176	102.499057700159	104.495236400049
30	3	6	distractor	56	Right	Right	RightArrow	1	1.66591289988719	105.5	105.493472700007	106.00060460018	107.993449000176
31	3	7	target	55	Left	Left	LeftArrow	1	1.20511609991081	109	108.993412100011	109.503243700135	111.493422300089
32	3	8	distractor	21	Right	Right	RightArrow	1	1.49610860017128	112.5	112.493377299979	112.997997700004	114.993483900093
33	3	9	target	54	Left	Left	LeftArrow	1	1.14039179985411	116	115.993400700158	116.500191700179	118.493370700162
34	3	10	target	22	Left	Right	RightArrow	0	2.02632849989459	119.5	119.493475000141	119.998363000108	121.998421899974
35	3	11	distractor	19	Right	Right	RightArrow	1	2.57840880006552	123	122.993342700182	123.496922800085	125.497759900056
36	3	12	target	18	Left	Left	LeftArrow	1	1.05826029996388	126.5	126.493493100163	127.003100600094	128.993417200167
37	4	1	filler	24	None			NaN	0	130	129.993734400021	130.499112799997	132.495649000164
38	4	2	filler	63	None			NaN	0	133.5	133.505261800019	133.998673100024	135.994759500027
39	4	3	target	26	Left	Left	LeftArrow	1	0.898431499954313	137	137.005659000017	137.502495100023	139.493465200067
40	4	4	distractor	23	Right	Right	RightArrow	1	1.44695660006255	140.5	140.49339450011	141.002689300105	142.993420900078
41	4	5	distractor	59	Right	Left	LeftArrow	0	1.91974909999408	144	143.993071000092	144.499747700058	146.493370400043
42	4	6	target	27	Left	Right	RightArrow	0	1.77190950000659	147.5	147.493460700149	147.99924390018	149.993483900093
43	4	7	distractor	25	Right	Right	RightArrow	1	2.21840730006807	151	150.993505700026	151.499239400029	153.494484800147
44	4	8	target	28	Left	Left	LeftArrow	1	0.978205299936235	154.5	154.493396700127	155.000710400054	156.993481999962
45	4	9	distractor	64	Right	Right	RightArrow	1	1.3250080998987	158	157.993451399961	158.500982300146	160.493547799997
46	4	10	distractor	62	Right	Left	LeftArrow	0	1.71307930001058	161.5	161.493480300065	161.99843100016	163.993466000073
47	4	11	target	60	Left	Left	LeftArrow	1	1.30296120001003	165	164.993975300109	165.499087200034	167.49341100012
48	4	12	target	61	Left	Left	LeftArrow	1	0.927817200077698	168.5	168.493416000158	169.00179930008	170.993467400083
49	5	1	filler	32	None			NaN	0	172	171.993358500069	172.501397800166	174.498024899978
50	5	2	filler	34	None			NaN	0	175.5	175.503800300183	175.999255700037	177.997313100146
51	5	3	target	31	Left	Left	LeftArrow	1	1.2611540001817	179	179.004107499961	179.502354800003	181.493483300088
52	5	4	distractor	65	Right	Right	RightArrow	1	0.739788400009274	182.5	182.493047100026	182.997824300081	184.992880900158
53	5	5	distractor	68	Right	Left	LeftArrow	0	1.62126779998653	186	185.993482599966	186.500651700189	188.493451799965
54	5	6	distractor	30	Right	Left	LeftArrow	0	1.26592069980688	189.5	189.49349270016	189.999168200186	191.993466800079
55	5	7	target	70	Left	Right	RightArrow	0	1.79656299995258	193	192.993385100039	193.497804800048	195.493383700028
56	5	8	distractor	67	Right	Left	LeftArrow	0	0.963322799885646	196.5	196.493421700085	197.000426900107	198.99350280012
57	5	9	target	66	Left	Right	RightArrow	0	1.18081930000335	200	199.993361199973	200.500161500182	202.493442300009
58	5	10	distractor	29	Right	Right	RightArrow	1	1.20700679998845	203.5	203.493334100116	203.999541100115	205.993343900191
59	5	11	target	69	Left	Left	LeftArrow	1	0.906185199972242	207	206.993465000065	207.497800500132	209.493483999977
60	5	12	target	33	Left	Right	RightArrow	0	0.8737952997908	210.5	210.493400100153	210.998724700185	212.993360199966
61	6	1	filler	38	None			NaN	0	214	213.993105600122	214.502375000156	216.497702999972
62	6	2	filler	37	None			NaN	0	217.5	217.506040500011	217.999488600064	219.997924700147
63	6	3	distractor	75	Right	Right	RightArrow	1	0.729576299898326	221	221.006195800146	221.498005500063	223.493227500003
64	6	4	target	36	Left	Left	LeftArrow	1	0.922890699934214	224.5	224.493364800001	224.997226100182	226.993067000061
65	6	5	target	76	Left	Right	RightArrow	0	1.31240650010295	228	227.993081300054	228.4989757	230.4934849001
66	6	6	distractor	71	Right	Right	RightArrow	1	1.05978160002269	231.5	231.493047300028	232.002259999979	233.993566800142
67	6	7	target	74	Left	Left	LeftArrow	1	1.32366920006461	235	234.993429100141	235.499213400064	237.493508100044
68	6	8	target	73	Left	Left	LeftArrow	1	1.50415090005845	238.5	238.493426500121	238.997845000122	240.993418600177
69	6	9	distractor	39	Right	Right	RightArrow	1	0.829312399961054	242	241.993422399973	242.497223500162	244.493387600174
70	6	10	distractor	40	Right	Right	RightArrow	1	1.79384299996309	245.5	245.49337000004	246.001248300076	247.99338270002
71	6	11	target	35	Left	Left	LeftArrow	1	0.761495899874717	249	248.99317040015	249.496743000112	251.493559800088
72	6	12	distractor	72	Right	Right	RightArrow	1	1.24717739992775	252.5	252.493486799998	252.999131000135	254.993462500162
