trial_id	block	trial	type	stim_id	cresp	resp	resp_raw	acc	rt	trial_start_time_expt	trial_start_time	stim_onset_time	stim_offset_time
1	1	1	filler	48	None			NaN	0	4	3.99342519999482	4.53841400006786	6.49689639999997
2	1	2	filler	68	None			NaN	0	7.5	7.51410959998611	8.03817159996834	9.99923850002233
3	1	3	target	46	Left	Left	LeftArrow	1	2.28846359997988	11	11.0103336999891	11.5352157000452	13.4961326000048
4	1	4	distractor	47	Right			-1	0	14.5	14.4934026000556	15.0356673999922	16.9960406000027
5	1	5	distractor	26	Right			-1	0	18	18.0049440000439	18.504648400005	20.4939038000302
6	1	6	distractor	27	Right	Right	RightArrow	1	1.55524419993162	21.5	21.5064525000053	22.0405049000401	23.9934316000436
7	1	7	distractor	5	Right			-1	0	25	24.9933915999718	25.5400958000682	27.4964924000669
8	1	8	target	25	Left			-1	0	28.5	28.5094153999817	29.0367249000119	30.9970964000095
9	1	9	target	4	Left	Left	LeftArrow	1	1.33284120005555	32	32.0070316999918	32.539506400004	34.4934865999967
10	1	10	distractor	69	Right			-1	0	35.5	35.493450500071	36.0354234999977	37.9944027999882
11	1	11	target	6	Left			-1	0	39	39.0072628000053	39.5356334999669	41.4981811000034
12	1	12	target	67	Left	Left	LeftArrow	1	1.94453430001158	42.5	42.5054939000402	43.0395651999861	44.9933727000607
13	2	1	filler	9	None			NaN	0	46	45.9934120000107	46.5061598999891	48.496565700043
14	2	2	filler	30	None			NaN	0	49.5	49.5062876000302	50.0352537999861	51.9964270000346
15	2	3	target	7	Left	Left	LeftArrow	1	1.57216310000513	53	53.0071577000199	53.5394584999885	55.4934972999617
16	2	4	target	28	Left			-1	0	56.5	56.4934487000573	57.0383813000517	58.9976268999744
17	2	5	distractor	71	Right			-1	0	60	60.0052568999818	60.5396495000459	62.4962417000206
18	2	6	target	29	Left	Left	LeftArrow	1	1.04663480003364	63.5	63.5089073000709	64.0373535000253	65.993504300015
19	2	7	distractor	8	Right			-1	0	67	66.9934618000407	67.5386280000675	69.4938525999896
20	2	8	distractor	72	Right			-1	0	70.5	70.5027665999951	71.0026637000265	72.9940013000742
21	2	9	distractor	50	Right	Right	RightArrow	1	1.82287329994142	74	74.0070808000164	74.5012866000179	76.4933665000135
22	2	10	target	70	Left			-1	0	77.5	77.4936150000431	78.0406334999716	79.9994419000577
23	2	11	target	49	Left			-1	0	81	81.0084192999639	81.5373506000033	83.4940530000022
24	2	12	distractor	51	Right	Right	RightArrow	1	2.38232360000256	84.5	84.5045578000136	85.0037667000433	86.9947650000686
25	3	1	filler	31	None			NaN	0	88	87.9934151000343	88.5401410000632	90.4953379000071
26	3	2	filler	10	None			NaN	0	91.5	91.5068550000433	92.0380879000295	93.9954910000088
27	3	3	distractor	53	Right	Right	RightArrow	1	1.58367810002528	95	95.0085543000605	95.5010368999792	97.4931263000472
28	3	4	target	12	Left			-1	0	98.5	98.4934025000548	99.0378784000641	100.995005300036
29	3	5	distractor	74	Right			-1	0	102	102.010087099974	102.538629399962	104.49482719996
30	3	6	target	11	Left			-1	0	105.5	105.505020100041	106.040532000014	107.994852100033
31	3	7	target	75	Left			-1	0	109	109.000380799989	109.493453599978	111.497533599962
32	3	8	distractor	54	Right			-1	0	112.5	112.507953200024	113.038401399972	114.998921600054
33	3	9	distractor	32	Right	Right	RightArrow	1	1.45750100002624	116	116.008690700051	116.53970720002	118.493411500007
34	3	10	target	52	Left			-1	0	119.5	119.493757999968	120.039993099985	121.994442300056
35	3	11	target	33	Left			-1	0	123	123.004685400054	123.53816970007	125.499269300024
36	3	12	distractor	73	Right			-1	0	126.5	126.504385299981	127.040111400071	128.997678500018
37	4	1	filler	13	None	Right	RightArrow	NaN	0.250504700001329	130	130.006385899964	130.538595700054	132.493356200051
38	4	2	filler	14	None			NaN	0	133.5	133.493467399967	134.002064400003	135.998214500025
39	4	3	target	15	Left	Left	LeftArrow	1	1.35895290004555	137	137.000327800051	137.538354999968	139.493470199988
40	4	4	distractor	56	Right			-1	0	140.5	140.4934717	141.002318300074	142.999439400039
41	4	5	distractor	76	Right			-1	0	144	144.006471300032	144.541576200048	146.499003099976
42	4	6	target	55	Left	Left	LeftArrow	1	2.092600199976	147.5	147.507704999996	148.003203700064	149.999362500035
43	4	7	target	78	Left			-1	0	151	150.993063600035	151.534563499968	153.495341800037
44	4	8	distractor	36	Right			-1	0	154.5	154.50029700005	155.035855100024	156.99870440003
45	4	9	target	77	Left			-1	0	158	158.006985899992	158.538091500057	160.493583200034
46	4	10	target	35	Left	Left	LeftArrow	1	0.609407900017686	161.5	161.504975000047	162.038258100045	163.99343240005
47	4	11	distractor	34	Right			-1	0	165	164.993462300044	165.499583399971	167.496406399994
48	4	12	distractor	57	Right	Right	RightArrow	1	2.41054089996032	168.5	168.503939699964	169.000216300017	170.998260200024
49	5	1	filler	58	None			NaN	0	172	171.99355080002	172.536393200047	174.496363700018
50	5	2	filler	81	None			NaN	0	175.5	175.509967899998	176.000908100046	177.999681900023
51	5	3	target	60	Left	Left	LeftArrow	1	2.05704220000189	179	179.007505599991	179.538974500028	181.494170199963
52	5	4	target	80	Left			-1	0	182.5	182.493453399977	183.039692600025	184.996534900041
53	5	5	distractor	18	Right			-1	0	186	186.003442500019	186.540101099992	188.495419700048
54	5	6	distractor	16	Right	Right	RightArrow	1	2.85449459997471	189.5	189.504114300013	190.039803000051	191.99704190006
55	5	7	distractor	39	Right			-1	0	193	192.99331759999	193.539882200072	195.495710800053
56	5	8	target	17	Left			-1	0	196.5	196.509134800057	197.038209400023	198.993960599997
57	5	9	target	38	Left	Left	LeftArrow	1	1.4089801000664	200	200.008191799978	200.538681300008	202.493345799972
58	5	10	distractor	59	Right			-1	0	203.5	203.493422699976	204.038095099968	205.995457199984
59	5	11	target	37	Left			-1	0	207	207.008182400023	207.529741600039	209.495215400006
60	5	12	distractor	79	Right	Right	RightArrow	1	2.33573419996537	210.5	210.507740800036	211.036421100027	212.997767199995
61	6	1	filler	21	None			NaN	0	214	213.993447000044	214.540023599984	216.494161400013
62	6	2	filler	40	None			NaN	0	217.5	217.501108000055	218.039502499974	219.998527799966
63	6	3	target	20	Left	Left	LeftArrow	1	2.29076240002178	221	221.007839799975	221.537087399978	223.498140700045
64	6	4	distractor	62	Right			-1	0	224.5	224.493441300001	225.039376600063	226.998121600016
65	6	5	distractor	82	Right			-1	0	228	228.004483700031	228.499411500059	230.494010500028
66	6	6	target	61	Left	Left	LeftArrow	1	1.77473850001115	231.5	231.506872200058	232.00046260003	233.993359300075
67	6	7	target	83	Left			-1	0	235	234.993484799983	235.53474589996	237.493922900059
68	6	8	target	63	Left			-1	0	238.5	238.504365900066	239.002608900075	240.997183799976
69	6	9	target	84	Left	Left	LeftArrow	1	1.55113420006819	242	242.003757999977	242.504799899994	244.493481600075
70	6	10	distractor	41	Right			-1	0	245.5	245.493452399969	246.04123079998	247.994913900038
71	6	11	distractor	42	Right			-1	0	249	249.005472599994	249.539240500075	251.496436099987
72	6	12	distractor	19	Right	Right	RightArrow	1	2.0622286000289	252.5	252.507511200034	253.03899609996	254.998371700058
