trial_id	block	trial	type	stim_id	cresp	resp	resp_raw	acc	rt	trial_start_time_expt	trial_start_time	stim_onset_time	stim_offset_time
1	1	1	filler	48	None			NaN	0	4	3.99334349999845	4.54124859999865	6.49705350000295
2	1	2	filler	68	None			NaN	0	7.5	7.51393490000191	8.04041970000253	9.99718430000212
3	1	3	target	46	Left	Left	LeftArrow	1	1.06631050000578	11	11.0115319999968	11.5366981999978	13.4934472000023
4	1	4	distractor	47	Right	Right	RightArrow	1	2.48206170000049	14.5	14.4934734999988	15.041109400001	16.9984447000024
5	1	5	distractor	26	Right	Left	LeftArrow	0	2.11624019999726	18	17.9934522999974	18.5420317000026	20.498357299999
6	1	6	distractor	27	Right	Right	RightArrow	1	2.71449730000313	21.5	21.4934284999981	22.0400369999988	23.998963799997
7	1	7	distractor	5	Right	Right	RightArrow	1	1.74457830000028	25	24.9934689000002	25.5381006000025	27.4934566000011
8	1	8	target	25	Left	Left	LeftArrow	1	1.05262149999908	28.5	28.4934518000009	29.0375571999975	30.9934470000007
9	1	9	target	4	Left	Right	RightArrow	0	1.42015790000005	32	31.9934279000008	32.5388759999987	34.4934676999983
10	1	10	distractor	69	Right	Left	LeftArrow	0	1.30649570000242	35.5	35.4934555	36.0357204999964	37.9934540000031
11	1	11	target	6	Left	Left	LeftArrow	1	1.76154270000552	39	38.993542199998	39.5372580999974	41.4935387000005
12	1	12	target	67	Left	Right	RightArrow	0	1.26634989999729	42.5	42.4935743000024	43.0366805000012	44.993421799998
13	2	1	filler	9	None			NaN	0	46	45.9933310999986	46.5039593999973	48.4960161999988
14	2	2	filler	30	None			NaN	0	49.5	49.5079226000016	50.0371417999995	51.9961675000013
15	2	3	target	7	Left	Right	RightArrow	0	0.814353599998867	53	53.0079818000013	53.535709900003	55.4934651000003
16	2	4	target	28	Left	Left	LeftArrow	1	1.18233039999905	56.5	56.4934645999965	57.0348633000031	58.9934244000033
17	2	5	distractor	71	Right	Left	LeftArrow	0	2.35014729999966	60	59.9934065999987	60.5363561999984	62.4970959999991
18	2	6	target	29	Left	Left	LeftArrow	1	1.18604229999619	63.5	63.4934816000023	64.0390119000003	65.9934473999965
19	2	7	distractor	8	Right	Right	RightArrow	1	1.46977380000317	67	66.9933212999968	67.5352304999979	69.4934364000001
20	2	8	distractor	72	Right	Left	LeftArrow	0	1.54733519999718	70.5	70.4934951000032	71.0044405000008	72.9934880000001
21	2	9	distractor	50	Right	Left	LeftArrow	0	1.19565270000021	74	73.9935788000003	74.5405702999997	76.4934781999982
22	2	10	target	70	Left	Right	RightArrow	0	1.14826720000565	77.5	77.493547099999	78.0379450999972	79.9936522999997
23	2	11	target	49	Left	Left	LeftArrow	1	0.462760700000217	81	80.9933399000001	81.5367780000015	83.4934599999979
24	2	12	distractor	51	Right	Right	RightArrow	1	1.48448859999917	84.5	84.4933632999964	85.0019433999987	86.9934569000034
25	3	1	filler	31	None			NaN	0	88	87.9934600999986	88.5377869000004	90.4993985999972
26	3	2	filler	10	None			NaN	0	91.5	91.5053725000034	92.0413531000013	93.9974158999976
27	3	3	distractor	53	Right	Right	RightArrow	1	0.886291299997538	95	95.009532600001	95.5041519000006	97.4934880000001
28	3	4	target	12	Left	Left	LeftArrow	1	1.19028880000405	98.5	98.4935291000002	99.0358192999993	100.993444699998
29	3	5	distractor	74	Right	Right	RightArrow	1	1.00706579999678	102	101.9934527	102.538843800001	104.493439400001
30	3	6	target	11	Left	Left	LeftArrow	1	1.02952880000521	105.5	105.493372899997	106.039529499998	107.993519299998
31	3	7	target	75	Left	Left	LeftArrow	1	1.17155180000555	109	108.993471499998	109.537220799997	111.493528300001
32	3	8	distractor	54	Right	Right	RightArrow	1	1.75973869999871	112.5	112.493409199997	113.038454699999	114.993915999999
33	3	9	distractor	32	Right	Left	LeftArrow	0	1.349137600002	116	115.993459099998	116.540284399998	118.493398699997
34	3	10	target	52	Left	Right	RightArrow	0	1.1727549999996	119.5	119.4934249	120.035324099998	121.993418099999
35	3	11	target	33	Left	Left	LeftArrow	1	0.92275150000205	123	122.993383599998	123.537206000001	125.493470399997
36	3	12	distractor	73	Right	Right	RightArrow	1	1.09952249999333	126.5	126.493296400004	127.040392100003	128.993540099997
37	4	1	filler	13	None	Left	LeftArrow	NaN	1.53012970000418	130	129.9934087	130.539042299999	132.493542700002
38	4	2	filler	14	None			NaN	0	133.5	133.493545999998	134.005329599997	135.997855599999
39	4	3	target	15	Left	Left	LeftArrow	1	1.06932180000149	137	137.009241599997	137.536782700001	139.493384599999
40	4	4	distractor	56	Right	Right	RightArrow	1	1.32605080000212	140.5	140.493487699998	141.002365699998	142.993471200003
41	4	5	distractor	76	Right	Left	LeftArrow	0	1.16465960000642	144	143.993406000001	144.538389399997	146.493493800001
42	4	6	target	55	Left	Left	LeftArrow	1	1.80496009999479	147.5	147.493439899998	148.000976000003	149.9934096
43	4	7	target	78	Left			-1	0	151	150.993714099997	151.539701100002	153.494082899997
44	4	8	distractor	36	Right	Left	LeftArrow	0	0.697292600001674	154.5	154.504742999998	155.036447699997	156.993383599998
45	4	9	target	77	Left	Right	RightArrow	0	0.497707599999558	158	157.993447100002	158.538301599998	160.493482600003
46	4	10	target	35	Left	Left	LeftArrow	1	0.37393339999835	161.5	161.493447000001	162.040388000001	163.9933867
47	4	11	distractor	34	Right	Right	RightArrow	1	0.314358499999798	165	164.993453100004	165.502277500003	167.4933934
48	4	12	distractor	57	Right	Left	LeftArrow	0	0.661647400003858	168.5	168.4933599	169.003500899998	170.993439400001
49	5	1	filler	58	None	Right	RightArrow	NaN	0.530731999999261	172	171.993471000002	172.541737500003	174.493842800002
50	5	2	filler	81	None			NaN	0	175.5	175.493409399998	176.002691100002	177.994083700003
51	5	3	target	60	Left	Left	LeftArrow	1	0.791878699994413	179	179.007822300002	179.534491600003	181.493456299999
52	5	4	target	80	Left	Right	RightArrow	0	1.15546480000194	182.5	182.493450399998	183.035235399999	184.993328500001
53	5	5	distractor	18	Right	Left	LeftArrow	0	0.550245300000824	186	185.993979799998	186.535684199996	188.493303299998
54	5	6	distractor	16	Right	Right	RightArrow	1	1.51241119999759	189.5	189.493423499996	190.038980600002	191.9934049
55	5	7	distractor	39	Right	Right	RightArrow	1	1.38346920000185	193	192.993415999998	193.539126299998	195.4934488
56	5	8	target	17	Left	Right	RightArrow	0	1.79602040000464	196.5	196.493507400002	197.036484299999	198.993436999997
57	5	9	target	38	Left	Left	LeftArrow	1	2.31426460000512	200	199.993362900001	200.537597399998	202.4958616
58	5	10	distractor	59	Right	Right	RightArrow	1	1.5845530000006	203.5	203.493533599998	204.037938200003	205.9934564
59	5	11	target	37	Left	Left	LeftArrow	1	0.900602699999581	207	206.993495499999	207.536587100003	209.493444500004
60	5	12	distractor	79	Right	Right	RightArrow	1	1.30819740000152	210.5	210.493366000002	211.039309899999	212.993456099997
61	6	1	filler	21	None			NaN	0	214	213.993370199998	214.541087799997	216.496762399998
62	6	2	filler	40	None			NaN	0	217.5	217.508134000003	218.038309900003	219.994721100004
63	6	3	target	20	Left	Left	LeftArrow	1	1.46166269999958	221	221.009801599997	221.541421900001	223.4934545
64	6	4	distractor	62	Right	Right	RightArrow	1	1.02583690000029	224.5	224.4933198	225.040155100003	226.9934058
65	6	5	distractor	82	Right	Right	RightArrow	1	1.28122209999856	228	227.993428299997	228.501759999999	230.493385599999
66	6	6	target	61	Left	Right	RightArrow	0	1.37252330000047	231.5	231.493459099998	232.002350000002	233.993357200001
67	6	7	target	83	Left	Left	LeftArrow	1	1.60503489999974	235	234.993468799999	235.538005399998	237.493416600002
68	6	8	target	63	Left	Left	LeftArrow	1	1.97648570000456	238.5	238.493524099998	238.999412199999	240.993262900003
69	6	9	target	84	Left	Left	LeftArrow	1	2.29984930000501	242	241.993472399998	242.504201299998	244.4942247
70	6	10	distractor	41	Right	Right	RightArrow	1	0.872885199998564	245.5	245.493476099997	246.042417199998	247.993387800001
71	6	11	distractor	42	Right	Left	LeftArrow	0	1.33987019999768	249	248.993384000001	249.5352174	251.493498199998
72	6	12	distractor	19	Right			-1	0	252.5	252.493506600003	253.036965400002	254.998232600003
