trial_id	block	trial	type	stim_id	cresp	resp	resp_raw	acc	rt	trial_start_time_expt	trial_start_time	stim_onset_time	stim_offset_time
1	1	1	filler	5	None			NaN	0	4	3.99347660015337	4.51365029998124	6.49399910005741
2	1	2	filler	25	None			NaN	0	7.5	7.50526340003125	7.99757799995132	9.99560000002384
3	1	3	target	4	Left	Left	LeftArrow	1	0.938849900150672	11	11.0088535000104	11.4966090000235	13.4934821000788
4	1	4	target	27	Left	Right	RightArrow	0	0.807218300178647	14.5	14.4933800001163	14.9964340999722	16.9934366000816
5	1	5	target	6	Left	Right	RightArrow	0	2.31417579995468	18	17.9934570000041	18.4965378001798	20.4972842000425
6	1	6	distractor	48	Right	Right	RightArrow	1	2.36174660013057	21.5	21.4931290999521	22.0016520000063	23.9966347999871
7	1	7	distractor	46	Right	Right	RightArrow	1	2.20300609990954	25	24.9935117999557	25.4985327001195	27.4949727000203
8	1	8	target	47	Left	Left	LeftArrow	1	2.02454959996976	28.5	28.4933834001422	29.000277500134	30.9981158000883
9	1	9	distractor	26	Right			-1	0	32	31.9934030000586	32.5002377000637	34.4961028001271
10	1	10	distractor	67	Right	Left	LeftArrow	0	1.11221449985169	35.5	35.5064503001049	35.9976300001144	37.993487900123
11	1	11	distractor	68	Right	Left	LeftArrow	0	1.01430150005035	39	38.9933933999855	39.4979515001178	41.4934719000012
12	1	12	target	69	Left	Left	LeftArrow	1	1.0667139000725	42.5	42.4933838001452	42.99765080004	44.9934253999963
13	2	1	filler	30	None	Right	RightArrow	NaN	2.08582310006022	46	45.9934571001213	46.4963529000524	48.494049299974
14	2	2	filler	49	None	Right	RightArrow	NaN	1.65987339988351	49.5	49.4934666000772	49.9963905001059	51.9934603001457
15	2	3	distractor	71	Right	Left	LeftArrow	0	1.89093929994851	53	52.9934574000072	53.4968530000187	55.4933964000084
16	2	4	distractor	8	Right	Left	LeftArrow	0	2.20803270000033	56.5	56.4934769000392	56.998948500026	58.9956529999617
17	2	5	target	72	Left	Right	RightArrow	0	0.472449199995026	60	59.9935354001354	60.5013908001129	62.4934799000621
18	2	6	target	7	Left	Right	RightArrow	0	1.6686152999755	63.5	63.4934400999919	63.9960628000554	65.9936270001344
19	2	7	distractor	50	Right	Right	RightArrow	1	0.929695700062439	67	66.9934167000465	67.4978714999743	69.4934191000648
20	2	8	target	9	Left	Left	LeftArrow	1	1.60596399987116	70.5	70.4934621001594	70.9960412001237	72.993436699966
21	2	9	target	51	Left	Right	RightArrow	0	1.2774920000229	74	73.9931398001499	74.4962880001403	76.493473400129
22	2	10	distractor	29	Right	Left	LeftArrow	0	0.896639500046149	77.5	77.4934823999647	77.9987713000737	79.9934195000678
23	2	11	distractor	70	Right	Right	RightArrow	1	1.91873220005073	81	80.9934070000891	81.5019702999853	83.4934523999691
24	2	12	target	28	Left	Left	LeftArrow	1	1.06657369993627	84.5	84.4933869000524	84.9978988000657	86.9934835000895
25	3	1	filler	33	None	Left	LeftArrow	NaN	1.06939979991876	88	87.9933084000368	88.4966504001059	90.4933858001605
26	3	2	filler	54	None	Right	RightArrow	NaN	1.12411730014719	91.5	91.4934753000271	92.0007513000164	93.9934960999526
27	3	3	distractor	75	Right	Right	RightArrow	1	1.26892329985276	95	94.9933905000798	95.4978472001385	97.4934708999936
28	3	4	distractor	10	Right	Right	RightArrow	1	1.52678649988957	98.5	98.4930384999607	99.0012851001229	100.993851599982
29	3	5	target	73	Left	Right	RightArrow	0	0.482535500079393	102	101.99349270016	102.496291300049	104.493073600112
30	3	6	target	12	Left	Left	LeftArrow	1	0.343527700053528	105.5	105.493423399981	105.999306899961	107.993015800137
31	3	7	target	74	Left	Left	LeftArrow	1	0.669890699908137	109	108.993352500023	109.495034200139	111.493394900113
32	3	8	distractor	53	Right	Right	RightArrow	1	1.13654870004393	112.5	112.493465299951	112.993374600075	114.993311100174
33	3	9	distractor	32	Right	Left	LeftArrow	0	1.89400319987908	116	115.99337310018	116.498738000169	118.49339660001
34	3	10	target	52	Left			-1	0	119.5	119.493455799995	120.001854800154	121.995264600031
35	3	11	target	31	Left	Left	LeftArrow	1	1.73816279997118	123	123.008197200019	123.496179800015	125.493450900074
36	3	12	distractor	11	Right	Right	RightArrow	1	1.10552930017002	126.5	126.493474400137	126.996620699996	128.993452100083
37	4	1	filler	56	None	Right	RightArrow	NaN	1.6471563000232	130	129.993478200166	130.496808000142	132.493453999981
38	4	2	filler	55	None			NaN	0	133.5	133.493371400051	133.996234300081	135.998113600072
39	4	3	distractor	13	Right	Left	LeftArrow	0	0.803227399941534	137	137.003086500103	137.498871300137	139.49336740002
40	4	4	distractor	14	Right	Left	LeftArrow	0	0.596771999960765	140.5	140.493447400164	140.999105800176	142.993355900049
41	4	5	distractor	78	Right	Right	RightArrow	1	0.354293399956077	144	143.993477100041	144.498217200162	146.493443100015
42	4	6	target	15	Left	Right	RightArrow	0	0.711925999959931	147.5	147.493453500094	148.001360800117	149.993381500011
43	4	7	target	76	Left	Right	RightArrow	0	1.28572769998573	151	150.993470699992	151.497949700104	153.493493700167
44	4	8	distractor	36	Right	Left	LeftArrow	0	0.925549200037494	154.5	154.493397200014	154.999020300107	156.993450500071
45	4	9	target	77	Left	Right	RightArrow	0	1.03440189990215	158	157.993389700074	158.497718400089	160.4934564
46	4	10	target	35	Left	Left	LeftArrow	1	1.25331899989396	161.5	161.493489200016	161.996569900075	163.993400400039
47	4	11	distractor	57	Right	Left	LeftArrow	0	1.09586489992216	165	164.9934084001	165.500707800034	167.493520600023
48	4	12	target	34	Left	Right	RightArrow	0	0.619928099913523	168.5	168.493475600146	169.000537400134	170.99346700008
49	5	1	filler	58	None			NaN	0	172	171.99406850012	172.501956500113	174.496591700008
50	5	2	filler	18	None			NaN	0	175.5	175.507779400097	176.0010855	177.994901300175
51	5	3	target	60	Left	Left	LeftArrow	1	1.24750140006654	179	179.003435400082	179.496722199954	181.493517199997
52	5	4	target	16	Left	Right	RightArrow	0	0.841498000081629	182.5	182.493441400118	182.997090999968	184.993464500178
53	5	5	distractor	80	Right	Right	RightArrow	1	1.37942610005848	186	185.993417800171	186.500010600081	188.493464300176
54	5	6	target	17	Left	Left	LeftArrow	1	1.51848400011659	189.5	189.493470200105	189.998138800031	191.993444900028
55	5	7	distractor	38	Right	Right	RightArrow	1	1.46663670009002	193	192.993427800015	193.496141799958	195.493481999962
56	5	8	distractor	81	Right	Left	LeftArrow	0	0.869544900022447	196.5	196.493470299989	196.996557299979	198.9934564
57	5	9	target	37	Left	Right	RightArrow	0	0.505359699949622	200	199.993490000023	200.500097800046	202.493548500119
58	5	10	distractor	59	Right	Left	LeftArrow	0	0.572469100123271	203.5	203.493359300075	203.996647299966	205.993541799951
59	5	11	target	39	Left	Right	RightArrow	0	0.735968200024217	207	206.993454399984	207.501430900069	209.493406499969
60	5	12	distractor	79	Right	Left	LeftArrow	0	0.743529899977148	210.5	210.493355400162	211.001610400155	212.993426100118
61	6	1	filler	42	None	Left	LeftArrow	NaN	0.0643877000547945	214	213.99342770013	214.498423000099	216.493351900019
62	6	2	filler	83	None			NaN	0	217.5	217.493383000139	218.001866800012	219.998152100015
63	6	3	target	40	Left	Left	LeftArrow	1	0.840399399865419	221	221.003541599959	221.501627500169	223.493459700141
64	6	4	target	84	Left	Left	LeftArrow	1	0.587110500084236	224.5	224.493472400121	224.99909320008	226.993393700104
65	6	5	distractor	61	Right	Right	RightArrow	1	1.08100229990669	228	227.993467499968	228.498695600079	230.49345830013
66	6	6	target	82	Left	Left	LeftArrow	1	0.976156699936837	231.5	231.493472100003	231.99788010004	233.993454500102
67	6	7	distractor	19	Right	Right	RightArrow	1	1.1347153999377	235	234.993323400151	235.499379100045	237.493443700019
68	6	8	distractor	41	Right	Right	RightArrow	1	1.25245130015537	238.5	238.493597700028	238.996924699983	240.993498499971
69	6	9	distractor	63	Right	Left	LeftArrow	0	1.17836069990881	242	241.993515900103	242.497640500078	244.493412100011
70	6	10	distractor	21	Right	Right	RightArrow	1	0.766154699958861	245.5	245.493419500068	246.000494300155	247.993390599964
71	6	11	target	62	Left	Left	LeftArrow	1	0.72490829997696	249	248.993464200059	249.499356999993	251.493338400032
72	6	12	target	20	Left	Right	RightArrow	0	1.25609209993854	252.5	252.493399100145	252.993386400165	254.993382000132
