trial_id	block	trial	type	stim_id	cresp	resp	resp_raw	acc	rt	trial_start_time_expt	trial_start_time	stim_onset_time	stim_offset_time
1	1	1	filler	5	None			NaN	0	4	3.99348830012605	4.51096599991433	6.49900850001723
2	1	2	filler	25	None			NaN	0	7.5	7.50866160006262	8.00775160011835	9.99611030006781
3	1	3	target	4	Left	Left	LeftArrow	1	1.54604859999381	11	11.0055845000315	11.4986048000865	13.4934789999388
4	1	4	target	27	Left			-1	0	14.5	14.4935027000029	15.0009602000937	16.9949324000627
5	1	5	target	6	Left	Right	RightArrow	0	0.800798499956727	18	18.0035568999592	18.4972671000287	20.493379099993
6	1	6	distractor	48	Right	Right	RightArrow	1	1.44140180014074	21.5	21.4935171001125	22.0011543999426	23.9934277001303
7	1	7	distractor	46	Right	Right	RightArrow	1	1.25616579991765	25	24.9937110000756	25.4990326000843	27.4934139000252
8	1	8	target	47	Left	Right	RightArrow	0	0.795895700110123	28.5	28.4933597999625	28.9997672999743	30.9933581999503
9	1	9	distractor	26	Right	Right	RightArrow	1	0.978641200112179	32	31.9934378999751	32.4993175999261	34.4930756001268
10	1	10	distractor	67	Right	Right	RightArrow	1	0.867268400033936	35.5	35.4930141000077	35.9986825999804	37.9934018999338
11	1	11	distractor	68	Right	Right	RightArrow	1	0.944161899853498	39	38.9930547999684	39.5014391001314	41.4930736001115
12	1	12	target	69	Left	Right	RightArrow	0	1.06114280014299	42.5	42.4930662000552	42.996956899995	44.9935137000866
13	2	1	filler	30	None			NaN	0	46	45.9935186000075	46.4974893000908	48.4982273001224
14	2	2	filler	49	None			NaN	0	49.5	49.5057956001256	49.9987685999367	51.9978100000881
15	2	3	distractor	71	Right	Right	RightArrow	1	2.38299770001322	53	53.0077335999813	53.4987468000036	55.4981263999362
16	2	4	distractor	8	Right	Right	RightArrow	1	1.56963340006769	56.5	56.4935250000563	56.9987196000293	58.9934892000165
17	2	5	target	72	Left	Right	RightArrow	0	1.38093190011568	60	59.9939938001335	60.4988891999237	62.4929844001308
18	2	6	target	7	Left	Right	RightArrow	0	0.894952300004661	63.5	63.4936122000217	63.9968276000582	65.9934537000954
19	2	7	distractor	50	Right	Left	LeftArrow	0	1.50455109984614	67	66.9935022001155	67.4983598000836	69.4934255999979
20	2	8	target	9	Left	Right	RightArrow	0	1.46742260013707	70.5	70.49338180013	71.0010504999664	72.9932218000758
21	2	9	target	51	Left	Left	LeftArrow	1	1.5826214000117	74	73.9934819999617	74.4979282999411	76.4934737000149
22	2	10	distractor	29	Right	Left	LeftArrow	0	1.22558910003863	77.5	77.4934893001337	77.9960829999764	79.993393599987
23	2	11	distractor	70	Right	Right	RightArrow	1	1.80075769987889	81	80.99349969998	81.4991983000655	83.4934650999494
24	2	12	target	28	Left	Left	LeftArrow	1	1.27525150007568	84.5	84.4933796001133	84.9965188000351	86.9934666000772
25	3	1	filler	33	None	Left	LeftArrow	NaN	1.55535499984398	88	87.9934897001367	88.4977657001	90.4933392999228
26	3	2	filler	54	None			NaN	0	91.5	91.4933412000537	92.0014518001117	93.9970013001002
27	3	3	distractor	75	Right	Right	RightArrow	1	1.07640550006181	95	95.0067189000547	95.4982197000645	97.4934340000618
28	3	4	distractor	10	Right	Right	RightArrow	1	1.01993170008063	98.5	98.4934113000054	99.0017432000022	100.993326399941
29	3	5	target	73	Left	Left	LeftArrow	1	1.36958070006222	102	101.993437800091	102.496182099916	104.493430899922
30	3	6	target	12	Left	Right	RightArrow	0	0.733306800015271	105.5	105.493520000018	106.001200899947	107.993484700099
31	3	7	target	74	Left	Right	RightArrow	0	2.08636100008152	109	108.993416100042	109.498030500021	111.494339599973
32	3	8	distractor	53	Right	Left	LeftArrow	0	0.841440399875864	112.5	112.493389900075	112.998439100105	114.993451599963
33	3	9	distractor	32	Right	Left	LeftArrow	0	1.11168220010586	116	115.993485399988	116.496897100005	118.493383800145
34	3	10	target	52	Left	Left	LeftArrow	1	1.52402379992418	119.5	119.493347000098	119.996118400013	121.99345519999
35	3	11	target	31	Left	Left	LeftArrow	1	1.79227639990859	123	122.993488500128	123.495964400005	125.493385199923
36	3	12	distractor	11	Right	Right	RightArrow	1	1.04595130006783	126.5	126.493583699921	126.997654499952	128.993180300109
37	4	1	filler	56	None			NaN	0	130	129.993322799914	130.501558599994	132.496626399923
38	4	2	filler	55	None			NaN	0	133.5	133.504552700091	133.999792600051	135.996754500084
39	4	3	distractor	13	Right	Right	RightArrow	1	0.83505170000717	137	137.00695109996	137.498440300114	139.49340929999
40	4	4	distractor	14	Right	Right	RightArrow	1	0.614965599961579	140.5	140.493132000091	140.999911500141	142.993327100063
41	4	5	distractor	78	Right	Right	RightArrow	1	1.03270239988342	144	143.993265500059	144.50077100005	146.493162299972
42	4	6	target	15	Left	Right	RightArrow	0	0.618692500051111	147.5	147.49346040003	147.996264199959	149.993466800079
43	4	7	target	76	Left	Right	RightArrow	0	0.749205299885944	151	150.993390199961	151.501638400136	153.493473800132
44	4	8	distractor	36	Right	Right	RightArrow	1	1.42035349993967	154.5	154.493459600024	154.996660700068	156.993468299974
45	4	9	target	77	Left	Right	RightArrow	0	1.37719390005805	158	157.993460100144	158.499679500004	160.493498699972
46	4	10	target	35	Left	Right	RightArrow	0	0.739721299847588	161.5	161.49347919994	162.001021400094	163.993312000064
47	4	11	distractor	57	Right	Left	LeftArrow	0	0.857568300096318	165	164.993424199987	165.498970299959	167.493401400046
48	4	12	target	34	Left	Right	RightArrow	0	1.33915789984167	168.5	168.493429700145	168.996923400089	170.993435200071
49	5	1	filler	58	None			NaN	0	172	171.993067400064	172.49819110008	174.496536300052
50	5	2	filler	18	None			NaN	0	175.5	175.50299310009	176.000068899943	177.996774200117
51	5	3	target	60	Left	Left	LeftArrow	1	0.900987499859184	179	179.00334289996	179.496389500098	181.49316730001
52	5	4	target	16	Left	Right	RightArrow	0	1.15803539985791	182.5	182.49306940008	182.999657300068	184.99349969998
53	5	5	distractor	80	Right	Right	RightArrow	1	1.82534309988841	186	185.993494800059	186.496203500079	188.493469899986
54	5	6	target	17	Left	Right	RightArrow	0	1.30694429995492	189.5	189.493502200115	190.001290000044	191.993523000041
55	5	7	distractor	38	Right	Right	RightArrow	1	0.788251599995419	193	192.993432299932	193.502352799987	195.493479999946
56	5	8	distractor	81	Right	Right	RightArrow	1	0.918452200014144	196.5	196.492940100143	197.000868400093	198.993099699961
57	5	9	target	37	Left	Right	RightArrow	0	0.740451000165194	200	199.993418799946	200.500117199961	202.493980899919
58	5	10	distractor	59	Right	Left	LeftArrow	0	0.855452799936756	203.5	203.493670600001	203.999840300065	205.993438899983
59	5	11	target	39	Left	Right	RightArrow	0	0.854876399971545	207	206.99310610001	207.497331500053	209.493436299963
60	5	12	distractor	79	Right	Right	RightArrow	1	0.706457199994475	210.5	210.493380400119	211.000131699955	212.993373699952
61	6	1	filler	42	None			NaN	0	214	213.993478900054	214.500942500075	216.495598500129
62	6	2	filler	83	None			NaN	0	217.5	217.499393200036	217.996041600127	219.995203800034
63	6	3	target	40	Left	Left	LeftArrow	1	0.896921599982306	221	221.007121199975	221.499925500015	223.493498099968
64	6	4	target	84	Left	Right	RightArrow	0	1.32725139986724	224.5	224.493507900042	224.996053900104	226.993491800036
65	6	5	distractor	61	Right	Right	RightArrow	1	1.2077074998524	228	227.993408099981	228.499328900129	230.493488700129
66	6	6	target	82	Left	Left	LeftArrow	1	1.0343228999991	231.5	231.493389599957	231.998634200078	233.993371899938
67	6	7	distractor	19	Right	Right	RightArrow	1	1.4230843000114	235	234.993430200033	235.501542800106	237.493435699958
68	6	8	distractor	41	Right	Left	LeftArrow	0	1.37728870008141	238.5	238.49384999997	238.999309899984	240.993417399935
69	6	9	distractor	63	Right	Right	RightArrow	1	1.50374770001508	242	241.993454500102	242.497698199935	244.493115999969
70	6	10	distractor	21	Right	Right	RightArrow	1	1.11921350006014	245.5	245.493399100145	245.998233299935	247.99343329994
71	6	11	target	62	Left	Right	RightArrow	0	1.52841660007834	249	248.993463200051	249.49728469993	251.493096099934
72	6	12	target	20	Left	Right	RightArrow	0	0.803954500006512	252.5	252.493509100052	253.001217999961	254.99337520008
