trial_id	block	trial	type	stim_id	cresp	resp	resp_raw	acc	rt	trial_start_time_expt	trial_start_time	stim_onset_time	stim_offset_time
1	1	1	filler	48	None			NaN	0	4	3.99339760001749	4.50018980004825	6.4954594001174
2	1	2	filler	68	None			NaN	0	7.5	7.50476540019736	8.00235980004072	9.99907960020937
3	1	3	target	46	Left	Left	LeftArrow	1	0.898056600010023	11	11.003590100212	11.4996696000453	13.4934590000194
4	1	4	distractor	47	Right	Right	RightArrow	1	0.956059399992228	14.5	14.4933886001818	15.0002034001518	16.9934804001823
5	1	5	distractor	26	Right	Right	RightArrow	1	1.02298710006289	18	17.9934511000756	18.4987189001404	20.4931203001179
6	1	6	distractor	27	Right	Right	RightArrow	1	0.793768099974841	21.5	21.4936242999975	22.0024287002161	23.9934014000464
7	1	7	distractor	5	Right	Right	RightArrow	1	0.990052500041202	25	24.993426400004	25.5029800001066	27.4934339001775
8	1	8	target	25	Left	Left	LeftArrow	1	0.575052799889818	28.5	28.4933955001179	29.0004864002112	30.993371500168
9	1	9	target	4	Left	Left	LeftArrow	1	1.10912730009295	32	31.9934723000042	32.5031817001291	34.4930056000594
10	1	10	distractor	69	Right	Left	LeftArrow	0	1.33618570002727	35.5	35.493467300199	36.0004372000694	37.9934701002203
11	1	11	target	6	Left			-1	0	39	38.9933915000875	39.5019599001389	41.4980966001749
12	1	12	target	67	Left	Right	RightArrow	0	2.07941789994948	42.5	42.5002183001488	43.0031861001626	44.9948303001001
13	2	1	filler	9	None			NaN	0	46	45.9934335001744	46.502404200146	48.4976694001816
14	2	2	filler	30	None			NaN	0	49.5	49.5086934000719	49.9989665001631	51.9961448002141
15	2	3	target	7	Left	Left	LeftArrow	1	0.840492299990728	53	53.006204900099	53.5005078001413	55.4933796001133
16	2	4	target	28	Left	Right	RightArrow	0	0.775849200086668	56.5	56.4939785001334	57.0019400001038	58.9933269000612
17	2	5	distractor	71	Right	Right	RightArrow	1	1.78322480013594	60	59.9931431000587	60.5017299000174	62.4933937001042
18	2	6	target	29	Left	Left	LeftArrow	1	1.26753149996512	63.5	63.4934239001013	64.0036824000999	65.9934389002156
19	2	7	distractor	8	Right	Right	RightArrow	1	0.989283700007945	67	66.9933908001985	67.5011766001116	69.4931139000691
20	2	8	distractor	72	Right	Right	RightArrow	1	1.21233079978265	70.5	70.4934929001611	71.0004427002277	72.9934597001411
21	2	9	distractor	50	Right	Right	RightArrow	1	0.894146300153807	74	73.9934173000511	74.5039951000363	76.4934671001974
22	2	10	target	70	Left	Left	LeftArrow	1	0.670756499981508	77.5	77.4933700000402	78.0008438001387	79.9933858001605
23	2	11	target	49	Left	Left	LeftArrow	1	1.38301750016399	81	80.9930648000445	81.5002975000534	83.4934550002217
24	2	12	distractor	51	Right	Right	RightArrow	1	1.50965210003778	84.5	84.4934638000559	84.9977816001046	86.9934575001244
25	3	1	filler	31	None	Right	RightArrow	NaN	0.75381590006873	88	87.9934786001686	88.4992305000778	90.4935466002207
26	3	2	filler	10	None			NaN	0	91.5	91.4933620002121	91.9981192999985	93.9938376001082
27	3	3	distractor	53	Right	Right	RightArrow	1	0.940634599886835	95	95.0044759002049	95.5010568001308	97.4934180001728
28	3	4	target	12	Left	Left	LeftArrow	1	0.856812400044873	98.5	98.4934167000465	98.9991666001733	100.993430700153
29	3	5	distractor	74	Right	Right	RightArrow	1	1.52594199986197	102	101.993476000149	102.502014800208	104.493301000213
30	3	6	target	11	Left	Left	LeftArrow	1	0.818235999904573	105.5	105.493317400105	106.000035100151	107.993454900105
31	3	7	target	75	Left			-1	0	109	108.993396100122	109.503482000204	111.493803700199
32	3	8	distractor	54	Right	Right	RightArrow	1	1.06642200006172	112.5	112.509102000156	113.000875100028	114.993378900224
33	3	9	distractor	32	Right	Right	RightArrow	1	1.01689689978957	116	115.993473000126	116.502826100215	118.493467400083
34	3	10	target	52	Left	Left	LeftArrow	1	1.29744560015388	119.5	119.493429400027	119.997894200031	121.993468800094
35	3	11	target	33	Left	Left	LeftArrow	1	1.19910359987989	123	122.993036400061	123.501641000155	125.493470700225
36	3	12	distractor	73	Right	Right	RightArrow	1	0.811305099865422	126.5	126.493410600116	127.001726900227	128.993376400089
37	4	1	filler	13	None			NaN	0	130	129.993409000104	130.501209300011	132.494247500086
38	4	2	filler	14	None			NaN	0	133.5	133.504270100035	134.000065800035	135.996182400035
39	4	3	target	15	Left	Left	LeftArrow	1	0.812615599948913	137	137.005279700039	137.502368900226	139.493463200051
40	4	4	distractor	56	Right	Right	RightArrow	1	0.885288699995726	140.5	140.493367200019	140.997800200013	142.993457500124
41	4	5	distractor	76	Right	Right	RightArrow	1	0.753937100060284	144	143.993404300185	144.498751900159	146.49344300013
42	4	6	target	55	Left	Left	LeftArrow	1	1.06515479995869	147.5	147.493402000051	147.998462200165	149.99346870021
43	4	7	target	78	Left	Left	LeftArrow	1	0.801476799882948	151	150.993495800067	151.500702600228	153.493450400187
44	4	8	distractor	36	Right	Right	RightArrow	1	1.30477300006896	154.5	154.493391400203	154.999760300154	156.993448900059
45	4	9	target	77	Left	Left	LeftArrow	1	0.820102399913594	158	157.993380700005	158.501005700091	160.493437300203
46	4	10	target	35	Left	Left	LeftArrow	1	1.17882840009406	161.5	161.493439900223	161.999701600056	163.993639599998
47	4	11	distractor	34	Right	Right	RightArrow	1	0.954106000019237	165	164.993395199999	165.49653000012	167.493079800159
48	4	12	distractor	57	Right	Right	RightArrow	1	1.83974889991805	168.5	168.493034300162	169.001163900131	170.993408600101
49	5	1	filler	58	None			NaN	0	172	171.993415500037	172.502567500109	174.498488600133
50	5	2	filler	81	None			NaN	0	175.5	175.509377800161	175.999402500223	177.997852800181
51	5	3	target	60	Left	Left	LeftArrow	1	0.7114142999053	179	179.006014500046	179.504187100101	181.493461800041
52	5	4	target	80	Left			-1	0	182.5	182.493466500193	182.998771900078	184.996549500152
53	5	5	distractor	18	Right	Right	RightArrow	1	2.09926340007223	186	186.005694500171	186.5032718	188.496634100098
54	5	6	distractor	16	Right	Right	RightArrow	1	1.29141299985349	189.5	189.493501100224	189.99927450018	191.993409100221
55	5	7	distractor	39	Right			-1	0	193	192.993376500206	193.503234800184	195.498568400042
56	5	8	target	17	Left	Left	LeftArrow	1	1.60451029986143	196.5	196.503040100215	197.000809500227	198.993948100135
57	5	9	target	38	Left	Left	LeftArrow	1	0.703998300014064	200	199.993554700166	200.50212160009	202.493411500007
58	5	10	distractor	59	Right	Right	RightArrow	1	1.21067710011266	203.5	203.493444100022	203.999754100107	205.993411700008
59	5	11	target	37	Left	Left	LeftArrow	1	0.776623500045389	207	206.993391600205	207.50015680003	209.4934564
60	5	12	distractor	79	Right	Right	RightArrow	1	0.665698500117287	210.5	210.493365900125	211.003633300075	212.993071000092
61	6	1	filler	21	None			NaN	0	214	213.993374700192	214.503423200222	216.497932300204
62	6	2	filler	40	None			NaN	0	217.5	217.506079900078	217.999484800035	219.995502100093
63	6	3	target	20	Left	Left	LeftArrow	1	1.22188739990816	221	221.004486800171	221.503981300164	223.493391700089
64	6	4	distractor	62	Right	Right	RightArrow	1	1.20103880017996	224.5	224.493448700057	225.00277250004	226.993427000009
65	6	5	distractor	82	Right	Right	RightArrow	1	0.753789099864662	228	227.993472900009	228.499013800174	230.493327800184
66	6	6	target	61	Left	Left	LeftArrow	1	1.82717860001139	231.5	231.493466600077	232.00175950001	233.993162600091
67	6	7	target	83	Left	Left	LeftArrow	1	1.15269230003469	235	234.993572800187	235.503510700073	237.49339360022
68	6	8	target	63	Left	Right	RightArrow	0	2.34310820000246	238.5	238.493324500043	239.00054690009	240.9971105
69	6	9	target	84	Left	Left	LeftArrow	1	1.55437310016714	242	241.993379300227	242.499787000008	244.49346300005
70	6	10	distractor	41	Right	Right	RightArrow	1	1.61296280007809	245.5	245.493371800054	246.00134190009	247.993476600153
71	6	11	distractor	42	Right	Right	RightArrow	1	1.48505209991708	249	248.993463700172	249.499631800223	251.493455900112
72	6	12	distractor	19	Right	Right	RightArrow	1	1.85758730000816	252.5	252.4929978	252.99782340019	254.99303500005
