trial_id	block	trial	type	stim_id	cresp	resp	resp_raw	acc	rt	trial_start_time_expt	trial_start_time	stim_onset_time	stim_offset_time
1	1	1	filler	41	None			NaN	0	4	3.99338439991698	4.49938039993867	6.49488399992697
2	1	2	filler	42	None			NaN	0	7.5	7.50633709994145	8.00332049978897	9.99568379996344
3	1	3	distractor	5	Right	Right	RightArrow	1	0.73300899984315	11	11.0079442998394	11.5012340999674	13.4930619997904
4	1	4	target	43	Left	Right	RightArrow	0	1.94204979995266	14.5	14.493408099981	15.0004771999083	16.9933841999155
5	1	5	target	7	Left	Right	RightArrow	0	0.882482400164008	18	17.9935378998052	18.4990722998045	20.4933761998545
6	1	6	distractor	6	Right	Right	RightArrow	1	0.736156099941581	21.5	21.4933140999638	22.0019242998678	23.9933385998011
7	1	7	target	9	Left	Right	RightArrow	0	1.6871774001047	25	24.9933697998058	25.4988332998473	27.4929222997744
8	1	8	distractor	45	Right	Left	LeftArrow	0	0.734368999954313	28.5	28.4934336999431	28.9974547999445	30.9933523999061
9	1	9	distractor	44	Right	Left	LeftArrow	0	1.89822670002468	32	31.9934182998259	32.5018113998231	34.4933575999457
10	1	10	distractor	10	Right	Right	RightArrow	1	0.866194100119174	35.5	35.4930882998742	36.0044260998257	37.9934513999615
11	1	11	target	46	Left	Left	LeftArrow	1	1.04954580008052	39	38.9934780998155	39.4989189999178	41.4934752997942
12	1	12	target	8	Left	Right	RightArrow	0	2.45516970008612	42.5	42.4935215997975	42.9990506998729	44.9983806998935
13	2	1	filler	51	None			NaN	0	46	45.9933898998424	46.4995032998268	48.4975882999133
14	2	2	filler	12	None			NaN	0	49.5	49.5048431998584	49.9994541998021	51.9972245998215
15	2	3	distractor	14	Right	Left	LeftArrow	0	1.45577150001191	53	53.0047394998837	53.4982912999112	55.4934227999765
16	2	4	distractor	47	Right	Right	RightArrow	1	2.36627319990657	56.5	56.4934537999798	57.0030437998939	58.9990341998637
17	2	5	distractor	49	Right	Right	RightArrow	1	1.53067170013674	60	59.9934358999599	60.4999330998398	62.4934415000025
18	2	6	target	52	Left			-1	0	63.5	63.4930927997921	64.0001674999949	65.9944618998561
19	2	7	target	50	Left	Left	LeftArrow	1	0.299473899882287	67	67.0098682998214	67.5005713999271	69.4932307999115
20	2	8	target	48	Left	Right	RightArrow	0	0.461195999989286	70.5	70.4930470997933	71.0016542999074	72.9930636999197
21	2	9	distractor	16	Right	Right	RightArrow	1	0.89747910015285	74	73.9930323997978	74.4965767997783	76.49346649996
22	2	10	distractor	13	Right	Left	LeftArrow	0	1.15845269989222	77.5	77.4933929999825	78.0023509999737	79.9934001998045
23	2	11	target	11	Left			-1	0	81	80.9934538998641	81.4969103999902	83.4988958998583
24	2	12	target	15	Left	Right	RightArrow	0	1.43782879994251	84.5	84.5055591999553	84.9981382999104	86.9934818998445
25	3	1	filler	17	None			NaN	0	88	87.99349049991	88.504002599977	90.4978331997991
26	3	2	filler	57	None			NaN	0	91.5	91.509063599864	91.999230899848	93.9981135998387
27	3	3	distractor	53	Right	Right	RightArrow	1	1.41923319990747	95	95.0076076998375	95.5040487998631	97.4934394999873
28	3	4	distractor	20	Right	Right	RightArrow	1	2.12371669989079	98.5	98.4933417998254	99.0027280999348	100.997096499894
29	3	5	target	58	Left	Right	RightArrow	0	2.11406429996714	102	101.993427999783	102.50118459994	104.499572399771
30	3	6	distractor	56	Right	Left	LeftArrow	0	2.09067870001309	105.5	105.493501299992	106.00167209981	107.996195899788
31	3	7	target	55	Left	Left	LeftArrow	1	1.47604819992557	109	108.993481699843	109.501003999962	111.493413199903
32	3	8	distractor	21	Right	Right	RightArrow	1	1.50390589982271	112.5	112.493477099808	113.001690699952	114.99337559985
33	3	9	target	54	Left	Left	LeftArrow	1	0.387686799978837	116	115.993398999795	116.502711599926	118.493444299791
34	3	10	target	22	Left	Right	RightArrow	0	0.337693500099704	119.5	119.493391699856	120.001933999825	121.99336639978
35	3	11	distractor	19	Right	Right	RightArrow	1	0.889023500028998	123	122.993466399843	123.496777899796	125.493537899805
36	3	12	target	18	Left	Left	LeftArrow	1	1.91244739992544	126.5	126.493470599875	127.000692399917	128.993329599965
37	4	1	filler	24	None			NaN	0	130	129.99328519986	130.503688299796	132.499572299886
38	4	2	filler	63	None			NaN	0	133.5	133.507052199915	133.999772899784	135.995465599932
39	4	3	target	26	Left	Right	RightArrow	0	2.02724749990739	137	137.003854999784	137.497988099931	139.498062099796
40	4	4	distractor	23	Right	Right	RightArrow	1	1.09861569991335	140.5	140.493432499934	140.997667399934	142.993044599891
41	4	5	distractor	59	Right	Left	LeftArrow	0	1.5613325999584	144	143.993053599959	144.502638699953	146.493489499902
42	4	6	target	27	Left	Right	RightArrow	0	1.68224120000377	147.5	147.493480099831	148.000038399827	149.993375099963
43	4	7	distractor	25	Right	Left	LeftArrow	0	1.59436840005219	151	150.993398599792	151.499396999832	153.493413899792
44	4	8	target	28	Left	Left	LeftArrow	1	0.893765799934044	154.5	154.493395099882	155.001072699903	156.993153699907
45	4	9	distractor	64	Right	Right	RightArrow	1	1.25364699983038	158	157.993392899865	158.497843299992	160.493516199989
46	4	10	distractor	62	Right	Right	RightArrow	1	1.85605950001627	161.5	161.493544299854	161.996872599935	163.993462099927
47	4	11	target	60	Left	Left	LeftArrow	1	1.13957370002754	165	164.994221099885	165.499561799923	167.493316799868
48	4	12	target	61	Left	Right	RightArrow	0	1.12880329997279	168.5	168.49344289978	169.000913999975	170.993346599862
49	5	1	filler	32	None			NaN	0	172	171.993102299981	172.498829999939	174.498238199856
50	5	2	filler	34	None			NaN	0	175.5	175.505791899981	176.000241299858	177.994328100001
51	5	3	target	31	Left	Right	RightArrow	0	2.06167880003341	179	179.006513200002	179.502390899928	181.499025599798
52	5	4	distractor	65	Right	Left	LeftArrow	0	1.78500439994968	182.5	182.493482799968	183.002319799969	184.993507199921
53	5	5	distractor	68	Right	Right	RightArrow	1	1.553901999956	186	185.99337349995	186.496178299887	188.493454899872
54	5	6	distractor	30	Right			-1	0	189.5	189.493321299786	190.004190299893	191.994341299869
55	5	7	target	70	Left	Left	LeftArrow	1	1.93961689993739	193	193.0090092998	193.49932809989	195.493377399864
56	5	8	distractor	67	Right	Right	RightArrow	1	2.15371689992025	196.5	196.493454499869	197.000102899969	198.994831199991
57	5	9	target	66	Left	Left	LeftArrow	1	1.60435220017098	200	199.993211199995	200.500846099807	202.493438399862
58	5	10	distractor	29	Right	Right	RightArrow	1	0.894853900186718	203.5	203.493416499812	204.000969499815	205.993412399897
59	5	11	target	69	Left	Left	LeftArrow	1	1.01772579993121	207	206.99339699978	207.499156099977	209.49337869999
60	5	12	target	33	Left	Left	LeftArrow	1	0.696521800011396	210.5	210.493492499925	210.9977241999	212.993461099919
61	6	1	filler	38	None	Right	RightArrow	NaN	0.506260399939492	214	213.993132399861	214.501419699984	216.493389399955
62	6	2	filler	37	None			NaN	0	217.5	217.493464699946	217.997657999862	219.995341499802
63	6	3	distractor	75	Right	Right	RightArrow	1	2.00401100004092	221	221.00736869988	221.502469499828	223.49933989998
64	6	4	target	36	Left	Left	LeftArrow	1	2.21579639986157	224.5	224.493375499966	224.997542199912	226.995541099925
65	6	5	target	76	Left	Left	LeftArrow	1	2.23803700017743	228	227.993489599787	228.500843699789	230.498428099789
66	6	6	distractor	71	Right	Right	RightArrow	1	1.30550440005027	231.5	231.493657099782	232.002991699846	233.993398799794
67	6	7	target	74	Left	Left	LeftArrow	1	0.588826699880883	235	234.993151599774	235.499134999933	237.493464499945
68	6	8	target	73	Left			-1	0	238.5	238.493412199896	239.000512199942	240.997791299829
69	6	9	distractor	39	Right	Right	RightArrow	1	1.53183449991047	242	242.008232999826	242.500761599978	244.493461999809
70	6	10	distractor	40	Right	Left	LeftArrow	0	0.671508500119671	245.5	245.493437499972	245.998120899778	247.993471599882
71	6	11	target	35	Left	Right	RightArrow	0	1.4577174000442	249	248.993323899806	249.497035599779	251.493491599802
72	6	12	distractor	72	Right	Right	RightArrow	1	1.34360080002807	252.5	252.493397999788	253.002970299916	254.993480599951
