trial_id	block	trial	type	stim_id	cresp	resp	resp_raw	acc	rt	trial_start_time_expt	trial_start_time	stim_onset_time	stim_offset_time
1	1	1	filler	48	None			NaN	0	4	3.99382770003285	4.50278600002639	6.4981412999332
2	1	2	filler	68	None			NaN	0	7.5	7.51008119992912	8.00002409995068	9.99439599993639
3	1	3	target	46	Left	Left	LeftArrow	1	1.01832830009516	11	11.0102105999831	11.5033103999449	13.4933981000213
4	1	4	distractor	47	Right	Right	RightArrow	1	1.60344019997865	14.5	14.4933657000074	15.0013894999865	16.9934421000071
5	1	5	distractor	26	Right			-1	0	18	17.9934475999326	18.5004105999833	20.494299700018
6	1	6	distractor	27	Right	Left	LeftArrow	0	0.603675600024872	21.5	21.504634700017	21.9996027000016	23.9934360999614
7	1	7	distractor	5	Right	Right	RightArrow	1	1.0700961999828	25	24.9934458000353	25.4986270000227	27.4934471999295
8	1	8	target	25	Left	Left	LeftArrow	1	1.36743159999605	28.5	28.4933563999366	29.0000544999493	30.9930040999316
9	1	9	target	4	Left	Right	RightArrow	0	0.887066700030118	32	31.9934021999361	32.5003927999642	34.493426800007
10	1	10	distractor	69	Right	Left	LeftArrow	0	0.959286400000565	35.5	35.4930083999643	36.0047691999935	37.9934520999668
11	1	11	target	6	Left	Left	LeftArrow	1	0.697491200058721	39	38.994001199957	39.5021162999328	41.4933797999984
12	1	12	target	67	Left	Left	LeftArrow	1	0.897495799930766	42.5	42.4934089999879	43.003168300027	44.9933199000079
13	2	1	filler	9	None	Left	LeftArrow	NaN	1.02451990009286	46	45.9934074999765	46.5037077999441	48.4934528999729
14	2	2	filler	30	None			NaN	0	49.5	49.4930393999675	49.999469100032	51.9992259000428
15	2	3	target	7	Left	Left	LeftArrow	1	1.48284219997004	53	53.0048922999995	53.5013268999755	55.4934292000253
16	2	4	target	28	Left	Right	RightArrow	0	1.13986080000177	56.5	56.4934362999629	57.0047575000208	58.9933707999298
17	2	5	distractor	71	Right	Left	LeftArrow	0	1.8461383000249	60	59.9933840000303	60.4988238000078	62.4934023999376
18	2	6	target	29	Left			-1	0	63.5	63.4934399999911	64.0038273000391	65.9971121000126
19	2	7	distractor	8	Right	Left	LeftArrow	0	1.26956320006866	67	67.0040538000176	67.5036647999659	69.4930644000415
20	2	8	distractor	72	Right	Both	LeftArrow|RightArrow	0	0.855881699942984	70.5	70.4934104999993	71.0000010000076	72.9935305999825
21	2	9	distractor	50	Right	Right	RightArrow	1	1.27648540004157	74	73.9934118000092	74.5016052999999	76.4931283999467
22	2	10	target	70	Left	Right	RightArrow	0	0.769459500093944	77.5	77.4934252999956	78.001307599945	79.9933140999638
23	2	11	target	49	Left	Left	LeftArrow	1	0.708128200029023	81	80.9934288000222	81.5036228999961	83.4933884999482
24	2	12	distractor	51	Right	Left	LeftArrow	0	0.68810739996843	84.5	84.4934729000088	85.0042479999829	86.9932810999453
25	3	1	filler	31	None			NaN	0	88	87.9931844000239	88.4998806000222	90.4990371000022
26	3	2	filler	10	None			NaN	0	91.5	91.5052209999412	91.999419300002	93.9938864000142
27	3	3	distractor	53	Right	Right	RightArrow	1	0.742392799933441	95	95.011752499966	95.5017158000264	97.4934365999652
28	3	4	target	12	Left	Left	LeftArrow	1	0.981037700083107	98.5	98.493455799995	99.0019793999381	100.9933647
29	3	5	distractor	74	Right	Right	RightArrow	1	1.72775309998542	102	101.993374499958	102.50191370002	104.493460100028
30	3	6	target	11	Left	Left	LeftArrow	1	1.80635830003303	105.5	105.493504700018	106.001261799945	107.993446800043
31	3	7	target	75	Left	Right	RightArrow	0	1.2727479999885	109	108.993444400025	109.500304799993	111.492998000002
32	3	8	distractor	54	Right	Right	RightArrow	1	0.829868100001477	112.5	112.493424699991	113.00405680004	114.993382200017
33	3	9	distractor	32	Right	Left	LeftArrow	0	0.484810399939306	116	115.993350600009	116.502283900045	118.493464599946
34	3	10	target	52	Left	Right	RightArrow	0	0.533155099954456	119.5	119.493199100019	119.999271500041	121.993378499988
35	3	11	target	33	Left	Left	LeftArrow	1	0.33976379991509	123	122.993464899948	123.505690200021	125.493176299962
36	3	12	distractor	73	Right	Right	RightArrow	1	0.932847599964589	126.5	126.493463299936	126.999850400025	128.993363899994
37	4	1	filler	13	None			NaN	0	130	129.993458000012	130.49946099997	132.495241399971
38	4	2	filler	14	None			NaN	0	133.5	133.504896500031	134.004416299984	135.99487429997
39	4	3	target	15	Left	Left	LeftArrow	1	1.22189369995613	137	137.00525269995	137.502829100005	139.493483999977
40	4	4	distractor	56	Right	Right	RightArrow	1	0.816657699993812	140.5	140.493434199947	141.00051329995	142.993388599949
41	4	5	distractor	76	Right	Right	RightArrow	1	1.90248830011114	144	143.993087299983	144.503904799931	146.493664699956
42	4	6	target	55	Left	Right	RightArrow	0	1.29134570003953	147.5	147.493396500009	148.001001599943	149.993419999955
43	4	7	target	78	Left	Right	RightArrow	0	1.63416560005862	151	150.993428700021	151.503019999946	153.493400100037
44	4	8	distractor	36	Right	Left	LeftArrow	0	1.20857849996537	154.5	154.493471499998	155.003627600032	156.993111699936
45	4	9	target	77	Left	Right	RightArrow	0	1.41097660001833	158	157.993456800003	158.504751299974	160.493358799955
46	4	10	target	35	Left	Left	LeftArrow	1	1.23174109996762	161.5	161.493454199983	161.999341999996	163.993461900041
47	4	11	distractor	34	Right	Left	LeftArrow	0	1.31956199998967	165	164.993398600025	165.501390999998	167.493477699929
48	4	12	distractor	57	Right	Right	RightArrow	1	1.40203789994121	168.5	168.493452399969	168.998670600005	170.993250699947
49	5	1	filler	58	None			NaN	0	172	171.993448399939	172.49927359994	174.494100500015
50	5	2	filler	81	None			NaN	0	175.5	175.504159200005	176.000888200011	177.994490099954
51	5	3	target	60	Left	Left	LeftArrow	1	1.22745470004156	179	179.006089700037	179.502620999934	181.493844300043
52	5	4	target	80	Left	Right	RightArrow	0	0.840594200068153	182.5	182.493445600034	183.003921199939	184.993147899979
53	5	5	distractor	18	Right	Left	LeftArrow	0	1.33285050000995	186	185.993444300024	186.502473999979	188.492894000025
54	5	6	distractor	16	Right	Right	RightArrow	1	0.742966499994509	189.5	189.493371099932	190.003306400031	191.993452399969
55	5	7	distractor	39	Right	Right	RightArrow	1	1.13131399999838	193	192.993371599936	193.500799800036	195.493288500002
56	5	8	target	17	Left	Left	LeftArrow	1	0.914520399994217	196.5	196.493442200008	197.003307700041	198.993473900016
57	5	9	target	38	Left	Left	LeftArrow	1	1.93167089996859	200	199.993376599974	200.50212900003	202.493436499964
58	5	10	distractor	59	Right	Left	LeftArrow	0	1.02479699999094	203.5	203.4930284	204.001649099984	205.993367900024
59	5	11	target	37	Left	Right	RightArrow	0	0.984682000009343	207	206.993452299968	207.503421299974	209.493062500027
60	5	12	distractor	79	Right	Left	LeftArrow	0	1.03648599993903	210.5	210.493397100014	211.004224200035	212.993447399931
61	6	1	filler	21	None			NaN	0	214	213.993500399985	214.497984300018	216.497269799933
62	6	2	filler	40	None			NaN	0	217.5	217.511067199986	218.000500199967	219.994666600018
63	6	3	target	20	Left	Left	LeftArrow	1	1.02473579999059	221	221.004131500027	221.50001009996	223.493412000011
64	6	4	distractor	62	Right	Right	RightArrow	1	0.767785400035791	224.5	224.493359299959	225.001475999947	226.993443900021
65	6	5	distractor	82	Right	Right	RightArrow	1	1.39371589990333	228	227.993458900019	228.49968290003	230.493484699982
66	6	6	target	61	Left	Left	LeftArrow	1	1.25789040001109	231.5	231.493325199932	232.004752799985	233.993445200031
67	6	7	target	83	Left	Right	RightArrow	0	1.37900910002645	235	234.993454799987	235.499229999958	237.493363699992
68	6	8	target	63	Left	Left	LeftArrow	1	1.12931669992395	238.5	238.493445000029	238.999329800019	240.992799700005
69	6	9	target	84	Left	Right	RightArrow	0	1.12057629995979	242	241.99340539996	242.502385900007	244.493427700014
70	6	10	distractor	41	Right			-1	0	245.5	245.493402399938	245.999463899992	247.99429469998
71	6	11	distractor	42	Right	Left	LeftArrow	0	0.988247600034811	249	249.005903600017	249.500197099987	251.493374599959
72	6	12	distractor	19	Right	Left	LeftArrow	0	0.936546599958092	252.5	252.494001399959	252.999631999992	254.993389699957
