trial_id	block	trial	type	stim_id	cresp	resp	resp_raw	acc	rt	trial_start_time_expt	trial_start_time	stim_onset_time	stim_offset_time
1	1	1	filler	5	None	Left	LeftArrow	NaN	1.44564759999048	4	3.99304219998885	4.51380189997144	6.49345089995768
2	1	2	filler	25	None	Right	RightArrow	NaN	1.16175109997857	7.5	7.49305849999655	8.00630450004246	9.99344340001699
3	1	3	target	4	Left	Left	LeftArrow	1	0.856948599917814	11	10.9933021999896	11.5000034000259	13.4930215999484
4	1	4	target	27	Left	Right	RightArrow	0	0.820840599946678	14.5	14.4931848000269	14.999193900032	16.9935408999445
5	1	5	target	6	Left	Left	LeftArrow	1	0.740975100081414	18	17.993343399954	18.4988773999503	20.4933638999937
6	1	6	distractor	48	Right	Left	LeftArrow	0	0.593018200015649	21.5	21.4931934999768	22.0007588999579	23.9930341000436
7	1	7	distractor	46	Right	Right	RightArrow	1	0.90898659999948	25	24.9934744000202	25.5012431000359	27.4931779999752
8	1	8	target	47	Left	Left	LeftArrow	1	1.20170929993037	28.5	28.492887499975	28.9945473000407	30.9928581999848
9	1	9	distractor	26	Right	Right	RightArrow	1	0.779299000045285	32	31.9934897000203	32.4981619999744	34.4934590000194
10	1	10	distractor	67	Right	Left	LeftArrow	0	0.653389399987645	35.5	35.4934837999754	35.9959074000362	37.9930300000124
11	1	11	distractor	68	Right	Right	RightArrow	1	0.824924100073986	39	38.9934723000042	39.5006654999452	41.4934772000415
12	1	12	target	69	Left	Left	LeftArrow	1	0.72437039995566	42.5	42.4931367000099	43.000808199984	44.9933729999466
13	2	1	filler	30	None	Right	RightArrow	NaN	1.02326519996859	46	45.9932268999983	46.4983452999732	48.4932137000142
14	2	2	filler	49	None	Left	LeftArrow	NaN	0.718574199941941	49.5	49.4932975999545	50.0024498000275	51.9937421999639
15	2	3	distractor	71	Right	Right	RightArrow	1	0.742667999933474	53	52.9938468999462	53.5016829000087	55.4931985000148
16	2	4	distractor	8	Right	Left	LeftArrow	0	0.807522400049493	56.5	56.49329699995	56.9975668999832	58.9934063999681
17	2	5	target	72	Left	Right	RightArrow	0	0.818370699998923	60	59.9934343999485	60.4983760999748	62.4933692000341
18	2	6	target	7	Left	Left	LeftArrow	1	0.792763700010255	63.5	63.4934186999453	63.99929409998	65.9934549999889
19	2	7	distractor	50	Right	Left	LeftArrow	0	1.15939279994927	67	66.9930356999394	67.5015619000187	69.4931130999466
20	2	8	target	9	Left	Right	RightArrow	0	1.01324400003068	70.5	70.4931312999688	70.9987443999853	72.9933669000166
21	2	9	target	51	Left	Left	LeftArrow	1	0.719921599957161	74	73.993486899999	74.495980000007	76.4930285000009
22	2	10	distractor	29	Right	Right	RightArrow	1	0.807881399989128	77.5	77.4934991999762	78.000697099953	79.9930740999989
23	2	11	distractor	70	Right	Left	LeftArrow	0	0.906239800038747	81	80.9934727000073	81.4970735999523	83.4931252000388
24	2	12	target	28	Left	Right	RightArrow	0	1.54406709992327	84.5	84.4930531999562	84.999577300041	86.9934347999515
25	3	1	filler	33	None	Left	LeftArrow	NaN	0.766012700041756	88	87.9934782000491	88.4977692000102	90.493005599943
26	3	2	filler	54	None	Left	LeftArrow	NaN	0.686117800069042	91.5	91.4934319000458	91.9981448999606	93.9932816999499
27	3	3	distractor	75	Right	Right	RightArrow	1	1.10614339995664	95	94.9934339999454	95.5004723999882	97.4934691999806
28	3	4	distractor	10	Right	Right	RightArrow	1	0.874982299981639	98.5	98.4934068999719	98.9988846000051	100.993445800035
29	3	5	target	73	Left	Left	LeftArrow	1	1.03236519999336	102	101.993266799953	102.495999500039	104.493185800035
30	3	6	target	12	Left	Right	RightArrow	0	1.7694169000024	105.5	105.493456800003	106.000070299953	107.993453699979
31	3	7	target	74	Left	Left	LeftArrow	1	1.13799700001255	109	108.993506100029	109.502466200036	111.493443700019
32	3	8	distractor	53	Right	Left	LeftArrow	0	0.907007200061344	112.5	112.493399800034	113.000472299987	114.993058199994
33	3	9	distractor	32	Right	Right	RightArrow	1	1.02364299993496	116	115.993305700016	116.499267600011	118.493484299979
34	3	10	target	52	Left	Left	LeftArrow	1	1.46595480001997	119.5	119.493533100002	119.996223800001	121.993429700029
35	3	11	target	31	Left	Right	RightArrow	0	1.19483179994859	123	122.993600100046	123.502709100023	125.493318099994
36	3	12	distractor	11	Right	Right	RightArrow	1	0.736388600082137	126.5	126.493301899987	126.996403499972	128.993345899973
37	4	1	filler	56	None	Left	LeftArrow	NaN	0.506274099927396	130	129.993168200017	130.49804570002	132.493430300034
38	4	2	filler	55	None	Left	LeftArrow	NaN	0.518472400028259	133.5	133.493346899981	133.998554899939	135.993473900016
39	4	3	distractor	13	Right	Right	RightArrow	1	0.644667399930768	137	136.997028399957	137.499804600026	139.493447600049
40	4	4	distractor	14	Right	Right	RightArrow	1	0.4854940000223	140.5	140.493078100029	141.00376969995	142.993297699955
41	4	5	distractor	78	Right	Left	LeftArrow	0	0.954138100030832	144	143.993328699959	144.500605499954	146.493461000035
42	4	6	target	15	Left	Left	LeftArrow	1	1.05673189996742	147.5	147.493487	147.996367300046	149.993320000009
43	4	7	target	76	Left	Right	RightArrow	0	1.04432960005943	151	150.993241299991	151.500258899992	153.493516799994
44	4	8	distractor	36	Right	Left	LeftArrow	0	1.21267060004175	154.5	154.493088299991	154.998606699985	156.993418399943
45	4	9	target	77	Left	Left	LeftArrow	1	0.669302299967967	158	157.993313799961	158.499730300042	160.493296899949
46	4	10	target	35	Left	Right	RightArrow	0	1.13793100009207	161.5	161.493354500039	161.998586599948	163.993424099986
47	4	11	distractor	57	Right	Left	LeftArrow	0	0.83271759992931	165	164.99344780005	165.50179270003	167.493452999974
48	4	12	target	34	Left	Left	LeftArrow	1	0.633708899957128	168.5	168.493462800048	168.99841	170.993407299975
49	5	1	filler	58	None	Right	RightArrow	NaN	0.430528800003231	172	171.993100599968	172.498158499948	174.493122300017
50	5	2	filler	18	None	Left	LeftArrow	NaN	0.378804400097579	175.5	175.493393799989	176.000896099955	177.993137800018
51	5	3	target	60	Left	Right	RightArrow	0	0.382849899935536	179	178.993160499958	179.497943100054	181.493277600035
52	5	4	target	16	Left	Left	LeftArrow	1	0.375027699978091	182.5	182.493031600025	182.997426499962	184.993379099993
53	5	5	distractor	80	Right	Right	RightArrow	1	0.984762100037187	186	185.993459500023	186.497885599965	188.493455999997
54	5	6	target	17	Left	Left	LeftArrow	1	1.46732249995694	189.5	189.493409799994	189.998445700039	191.993522600038
55	5	7	distractor	38	Right	Left	LeftArrow	0	0.792583500035107	193	192.993356600055	193.49670769996	195.493143499945
56	5	8	distractor	81	Right	Right	RightArrow	1	0.534382399986498	196.5	196.493309600046	196.99972610001	198.99333680002
57	5	9	target	37	Left	Left	LeftArrow	1	1.14058799995109	200	199.993472500006	200.499253900023	202.493483799975
58	5	10	distractor	59	Right	Right	RightArrow	1	0.66622350004036	203.5	203.493461400038	204.000084399944	205.993232200039
59	5	11	target	39	Left	Left	LeftArrow	1	0.585842700093053	207	206.993044200004	207.498172599939	209.493130399962
60	5	12	distractor	79	Right	Right	RightArrow	1	0.232565699960105	210.5	210.493348799995	211.001116500003	212.99348439998
61	6	1	filler	42	None	Left	LeftArrow	NaN	0.416204200009815	214	213.993474900024	214.501097999979	216.493347399984
62	6	2	filler	83	None	Left	LeftArrow	NaN	0.719182700035162	217.5	217.493349299999	217.997687199968	219.993454099982
63	6	3	target	40	Left	Left	LeftArrow	1	0.589301500003785	221	220.993469199981	221.502217000001	223.493338900036
64	6	4	target	84	Left	Left	LeftArrow	1	0.501136000035331	224.5	224.493647699943	224.998243200011	226.993482399965
65	6	5	distractor	61	Right	Right	RightArrow	1	0.492938000010327	228	227.993216900039	228.497753100004	230.493182400009
66	6	6	target	82	Left	Left	LeftArrow	1	0.45320999994874	231.5	231.493157100049	231.996743600001	233.993047200027
67	6	7	distractor	19	Right	Right	RightArrow	1	0.662558499956504	235	234.993465999956	235.499681700021	237.493458800018
68	6	8	distractor	41	Right	Left	LeftArrow	0	0.577267199987546	238.5	238.493476600037	239.001157199964	240.993382000015
69	6	9	distractor	63	Right	Left	LeftArrow	0	0.460258399951272	242	241.993092500023	242.498078800039	244.493031200022
70	6	10	distractor	21	Right			-1	0	245.5	245.493493900052	245.993390999967	247.994183299947
71	6	11	target	62	Left	Left	LeftArrow	1	0.589987100102007	249	249.008570899954	249.499366799952	251.493469599984
72	6	12	target	20	Left	Right	RightArrow	0	0.72025669994764	252.5	252.49341450003	252.996611000039	254.993296499946
