trial_id	block	trial	type	stim_id	cresp	resp	resp_raw	acc	rt	trial_start_time_expt	trial_start_time	stim_onset_time	stim_offset_time
1	1	1	filler	48	None			NaN	0	4	3.99325599998701	4.55583359999582	6.49800819996744
2	1	2	filler	68	None			NaN	0	7.5	7.51718099997379	8.04329800000414	9.99703749996843
3	1	3	target	46	Left	Right	RightArrow	0	0.937879200035241	11	11.0082371999742	11.5349064999609	13.4934394999873
4	1	4	distractor	47	Right			-1	0	14.5	14.4934808999533	15.0377308999887	16.9941774999606
5	1	5	distractor	26	Right	Left	LeftArrow	0	0.949031400028616	18	18.0061755999923	18.5403937999508	20.4939973999863
6	1	6	distractor	27	Right	Left	LeftArrow	0	1.66075709997676	21.5	21.493530399981	22.0353444999782	23.9934083999833
7	1	7	distractor	5	Right	Right	RightArrow	1	0.965122800029349	25	24.9933900999604	25.5416718999622	27.4934647000046
8	1	8	target	25	Left	Left	LeftArrow	1	1.06126349995611	28.5	28.4933665999561	29.0413410000037	30.9934475999908
9	1	9	target	4	Left	Right	RightArrow	0	1.70875190000515	32	31.9934647000046	32.5398794999928	34.4934549999889
10	1	10	distractor	69	Right			-1	0	35.5	35.493388999952	36.0412050999585	37.9946135999635
11	1	11	target	6	Left	Left	LeftArrow	1	0.98101620003581	39	39.0083964999649	39.5379319999483	41.4930179999792
12	1	12	target	67	Left			-1	0	42.5	42.4934698999859	43.0062120999792	44.9982003999758
13	2	1	filler	9	None			NaN	0	46	46.0077425999916	46.5025791999651	48.4953683000058
14	2	2	filler	30	None			NaN	0	49.5	49.5062160999514	50.0382263999782	51.9978967999923
15	2	3	target	7	Left	Left	LeftArrow	1	0.939013900002465	53	53.0052564999787	53.5372270999942	55.4929546999629
16	2	4	target	28	Left	Right	RightArrow	0	1.32680310000433	56.5	56.4937643999583	57.0383360999986	58.9934153999784
17	2	5	distractor	71	Right	Right	RightArrow	1	0.898332200013101	60	59.9934104999993	60.5402193999616	62.4934320999891
18	2	6	target	29	Left	Left	LeftArrow	1	1.16737929999363	63.5	63.4934444999672	64.0411926999805	65.9932650999981
19	2	7	distractor	8	Right			-1	0	67	66.9934500999516	67.5364419999532	69.4957598999608
20	2	8	distractor	72	Right			-1	0	70.5	70.5093562999973	71.0041660999996	72.9971969999606
21	2	9	distractor	50	Right	Right	RightArrow	1	1.2293614000082	74	74.007070599997	74.5392302999971	76.4934735999559
22	2	10	target	70	Left			-1	0	77.5	77.493376599974	78.0417956999736	79.9964766000048
23	2	11	target	49	Left			-1	0	81	81.0079545999761	81.5389284999692	83.4951702999533
24	2	12	distractor	51	Right	Right	RightArrow	1	0.894462900003418	84.5	84.5100744999945	85.0036767999991	86.99348309997
25	3	1	filler	31	None	Right	RightArrow	NaN	1.95865939999931	88	87.9934383999789	88.5401137999725	90.501305599988
26	3	2	filler	10	None			NaN	0	91.5	91.4940109999734	92.0399270000053	93.9987768999999
27	3	3	distractor	53	Right			-1	0	95	95.0049694000045	95.5021246999968	97.4965155999525
28	3	4	target	12	Left	Left	LeftArrow	1	1.0740854999749	98.5	98.5052679999499	99.0409185999888	100.993415699981
29	3	5	distractor	74	Right			-1	0	102	101.993366299954	102.537149899988	104.493952399993
30	3	6	target	11	Left	Left	LeftArrow	1	0.814317899988964	105.5	105.509996399982	106.037874899979	107.993450899958
31	3	7	target	75	Left	Right	RightArrow	0	0.587807400035672	109	108.993362599984	109.504750499967	111.493472400005
32	3	8	distractor	54	Right	Right	RightArrow	1	1.15198069997132	112.5	112.493466099957	113.037989399978	114.99347549997
33	3	9	distractor	32	Right	Left	LeftArrow	0	0.812697399989702	116	115.99342189997	116.541300599987	118.493050899997
34	3	10	target	52	Left	Right	RightArrow	0	0.815713200019673	119.5	119.493353399972	120.038523599971	121.993535099959
35	3	11	target	33	Left	Left	LeftArrow	1	1.32988159998786	123	122.993468499975	123.538730299973	125.493550099956
36	3	12	distractor	73	Right	Right	RightArrow	1	0.670569200010505	126.5	126.493398599967	127.041407099983	128.993398299965
37	4	1	filler	13	None			NaN	0	130	129.993029899953	130.536032099975	132.496504599985
38	4	2	filler	14	None			NaN	0	133.5	133.508852200001	133.999018099974	135.995366999996
39	4	3	target	15	Left	Right	RightArrow	0	1.11543830001028	137	137.011246799957	137.539929299965	139.493479299999
40	4	4	distractor	56	Right	Left	LeftArrow	0	2.17410900001414	140.5	140.493462899991	141.003277199983	142.994539099978
41	4	5	distractor	76	Right	Right	RightArrow	1	1.49977410002612	144	143.993438399979	144.535463599954	146.493450099952
42	4	6	target	55	Left	Left	LeftArrow	1	1.36101220001001	147.5	147.49347409996	148.001209099952	149.99350339995
43	4	7	target	78	Left	Right	RightArrow	0	1.39600559999235	151	150.993463899998	151.500120199984	153.493429199967
44	4	8	distractor	36	Right	Left	LeftArrow	0	0.582985000044573	154.5	154.493339999986	155.04115949996	156.993481399957
45	4	9	target	77	Left	Right	RightArrow	0	0.723204499983694	158	157.993475599971	158.536563000001	160.493524599995
46	4	10	target	35	Left	Right	RightArrow	0	0.755787700007204	161.5	161.49347039999	162.040700399957	163.993231799977
47	4	11	distractor	34	Right	Right	RightArrow	1	1.10293260001345	165	164.993403400003	165.504054699966	167.493163599982
48	4	12	distractor	57	Right	Left	LeftArrow	0	1.01344250002876	168.5	168.493448699999	169.00422069995	170.993437099969
49	5	1	filler	58	None			NaN	0	172	171.993474999967	172.503700300003	174.493990599993
50	5	2	filler	81	None			NaN	0	175.5	175.506396299985	176.002283099981	177.995771499991
51	5	3	target	60	Left			-1	0	179	179.009604699968	179.500814899977	181.497321399976
52	5	4	target	80	Left	Left	LeftArrow	1	0.75550289999228	182.5	182.510739699996	183.03502499999	184.993461399979
53	5	5	distractor	18	Right	Right	RightArrow	1	0.83016009995481	186	185.993365899951	186.536593900004	188.493452799972
54	5	6	distractor	16	Right	Right	RightArrow	1	1.20193619997008	189.5	189.493424399989	190.035744599998	191.993443699961
55	5	7	distractor	39	Right	Left	LeftArrow	0	0.809733800007962	193	192.993519699958	193.536888399976	195.493495899951
56	5	8	target	17	Left	Left	LeftArrow	1	1.80206489999546	196.5	196.493551299965	197.042662799999	198.993574599968
57	5	9	target	38	Left	Left	LeftArrow	1	0.998588199960068	200	199.99339009996	200.53633209999	202.493430299975
58	5	10	distractor	59	Right	Right	RightArrow	1	1.58557300001848	203.5	203.493415499979	204.037505099957	205.993432799994
59	5	11	target	37	Left	Left	LeftArrow	1	0.828046000038739	207	206.993485599989	207.496148499951	209.493329599965
60	5	12	distractor	79	Right	Right	RightArrow	1	0.95442439999897	210.5	210.493262799981	211.041412799968	212.993376999977
61	6	1	filler	21	None			NaN	0	214	213.993461999984	214.537900399999	216.495710099989
62	6	2	filler	40	None			NaN	0	217.5	217.508542299969	218.038674899959	219.998316399986
63	6	3	target	20	Left	Right	RightArrow	0	1.00917330000084	221	221.003740299959	221.537133999984	223.493406199967
64	6	4	distractor	62	Right	Left	LeftArrow	0	1.08208059996832	224.5	224.493450999958	225.038479399984	226.993435499957
65	6	5	distractor	82	Right	Right	RightArrow	1	0.852625500003342	228	227.993013700005	228.50327289995	230.493254199973
66	6	6	target	61	Left	Left	LeftArrow	1	1.13731869996991	231.5	231.493448199995	232.003853500006	233.993896199972
67	6	7	target	83	Left	Right	RightArrow	0	1.51550849998603	235	234.993336699961	235.535904499993	237.493427399953
68	6	8	target	63	Left	Left	LeftArrow	1	1.44501010002568	238.5	238.493368199968	239.000889299961	240.99333659996
69	6	9	target	84	Left	Left	LeftArrow	1	1.12928699998884	242	241.993423899985	242.500423399964	244.493444699969
70	6	10	distractor	41	Right	Right	RightArrow	1	1.15321859996766	245.5	245.493445699976	246.039902199991	247.993385299982
71	6	11	distractor	42	Right	Right	RightArrow	1	1.53477929998189	249	248.993060899957	249.541142100003	251.493442099949
72	6	12	distractor	19	Right	Right	RightArrow	1	1.73087359999772	252.5	252.493478899996	253.005287899985	254.993044400006
