trial_id	block	trial	type	stim_id	cresp	resp	resp_raw	acc	rt	trial_start_time_expt	trial_start_time	stim_onset_time	stim_offset_time
1	1	1	filler	48	None			NaN	0	4	3.99348359999931	4.50426130000051	6.49624390000099
2	1	2	filler	68	None			NaN	0	7.5	7.51785670000027	8.00733270000273	9.99488660000134
3	1	3	target	46	Left	Left	LeftArrow	1	1.28648760000215	11	11.009896800002	11.5018772000003	13.4934040000007
4	1	4	distractor	47	Right	Left	LeftArrow	0	1.90580499999851	14.5	14.4933878000011	15.0026949000021	16.9933942000025
5	1	5	distractor	26	Right	Right	RightArrow	1	1.8264758999976	18	17.9934790000007	18.5033462000029	20.4934633000012
6	1	6	distractor	27	Right	Right	RightArrow	1	2.40137700000196	21.5	21.4934560000002	21.9991996999997	23.9992354000024
7	1	7	distractor	5	Right	Left	LeftArrow	0	1.58414679999987	25	24.9934716999996	25.5020451000019	27.4934883999995
8	1	8	target	25	Left	Left	LeftArrow	1	1.28008759999648	28.5	28.4934911000018	29.0015407000028	30.9934986000007
9	1	9	target	4	Left	Left	LeftArrow	1	1.23544910000055	32	31.9933918000024	32.5038153999994	34.4934365000008
10	1	10	distractor	69	Right	Left	LeftArrow	0	2.26426690000153	35.5	35.4934633000012	36.0020058000009	37.9972856999993
11	1	11	target	6	Left	Left	LeftArrow	1	1.10478019999937	39	38.9934573000028	39.5011532000026	41.4935495000027
12	1	12	target	67	Left	Left	LeftArrow	1	2.13642619999882	42.5	42.4933865000021	43.0043278000012	44.9952559000012
13	2	1	filler	9	None			NaN	0	46	45.9935669000006	46.5051268000025	48.4950901000011
14	2	2	filler	30	None			NaN	0	49.5	49.5046753000024	50.0038899000028	51.9966397000026
15	2	3	target	7	Left	Left	LeftArrow	1	1.98899149999852	53	53.0045081000026	53.5010341000016	55.4935953000022
16	2	4	target	28	Left	Left	LeftArrow	1	1.95473420000053	56.5	56.4934510000021	56.9984962000017	58.9935069000021
17	2	5	distractor	71	Right	Right	RightArrow	1	1.48832970000149	60	59.9934979999998	60.5048849000013	62.4934839000016
18	2	6	target	29	Left	Left	LeftArrow	1	1.83563990000039	63.5	63.4934442000012	64.0052624000018	65.9934594000006
19	2	7	distractor	8	Right	Right	RightArrow	1	1.77944200000275	67	66.9934496999995	67.5042238999995	69.4934285000018
20	2	8	distractor	72	Right	Left	LeftArrow	0	1.58085260000007	70.5	70.4934052999997	71.0017246000025	72.9934496999995
21	2	9	distractor	50	Right	Right	RightArrow	1	1.75920279999991	74	73.9933716000014	74.501271000001	76.4941666000013
22	2	10	target	70	Left	Right	RightArrow	0	1.64236050000181	77.5	77.4934749000022	78.0007464000009	79.9934032000019
23	2	11	target	49	Left	Right	RightArrow	0	1.64363400000002	81	80.9937471000012	81.5000199000024	83.4933899000025
24	2	12	distractor	51	Right	Right	RightArrow	1	2.24277029999939	84.5	84.4933197999999	85.0012497000025	86.9959439000013
25	3	1	filler	31	None			NaN	0	88	87.9934523000011	88.5049916999997	90.4959739000005
26	3	2	filler	10	None			NaN	0	91.5	91.5101146000015	92.0011477000007	93.9968147
27	3	3	distractor	53	Right	Right	RightArrow	1	1.08761040000172	95	95.0076807000005	95.5044319000008	97.4933676000001
28	3	4	target	12	Left	Right	RightArrow	0	1.22933950000152	98.5	98.4934557000015	99.003228900001	100.993444899999
29	3	5	distractor	74	Right	Right	RightArrow	1	1.64039789999879	102	101.993444300002	102.500547200001	104.493456300002
30	3	6	target	11	Left	Right	RightArrow	0	2.13123949999863	105.5	105.493475700001	106.000806300002	107.994204000002
31	3	7	target	75	Left	Left	LeftArrow	1	1.5601854000015	109	108.993456200002	109.4987502	111.493406600002
32	3	8	distractor	54	Right	Right	RightArrow	1	1.31479590000163	112.5	112.493442999999	113.0010797	114.9934703
33	3	9	distractor	32	Right	Right	RightArrow	1	1.2519014999998	116	115.9940757	116.504786900001	118.4934904
34	3	10	target	52	Left	Right	RightArrow	0	1.95711970000048	119.5	119.493447000001	120.002164699999	121.993396600003
35	3	11	target	33	Left	Right	RightArrow	0	1.44766569999774	123	122.993350600002	123.502966300002	125.493449400001
36	3	12	distractor	73	Right	Right	RightArrow	1	1.89798710000105	126.5	126.493434800002	126.9995466	128.9934598
37	4	1	filler	13	None			NaN	0	130	129.993419400002	130.502693599999	132.497051599999
38	4	2	filler	14	None			NaN	0	133.5	133.508988000001	134.003250600003	135.997208700002
39	4	3	target	15	Left	Left	LeftArrow	1	1.51836970000295	137	137.009246900001	137.504917599999	139.493427699999
40	4	4	distractor	56	Right	Right	RightArrow	1	1.2970673000018	140.5	140.4934392	141.0013296	142.993453999999
41	4	5	distractor	76	Right	Right	RightArrow	1	1.30378720000226	144	143.993457200002	144.5015484	146.493498300002
42	4	6	target	55	Left	Right	RightArrow	0	1.29300199999852	147.5	147.493328200002	148.000126800001	149.993531100001
43	4	7	target	78	Left	Left	LeftArrow	1	0.656461700000364	151	150.9934316	151.504010000001	153.4933012
44	4	8	distractor	36	Right	Right	RightArrow	1	1.69773450000139	154.5	154.493465300002	155.000319300001	156.993419800001
45	4	9	target	77	Left	Left	LeftArrow	1	0.890402000000904	158	157.993131900002	158.4977215	160.4933843
46	4	10	target	35	Left	Right	RightArrow	0	1.27297520000138	161.5	161.493454700001	162.000096	163.9934751
47	4	11	distractor	34	Right	Right	RightArrow	1	1.3915765999991	165	164.9934306	165.504221900002	167.4934374
48	4	12	distractor	57	Right	Left	LeftArrow	0	1.33524899999975	168.5	168.493414600001	168.9982389	170.993458700003
49	5	1	filler	58	None			NaN	0	172	171.993374000001	172.503345000001	174.4999317
50	5	2	filler	81	None			NaN	0	175.5	175.5052373	175.999894100001	177.993902800001
51	5	3	target	60	Left	Right	RightArrow	0	2.16828760000135	179	179.005113000003	179.5027304	181.496696600003
52	5	4	target	80	Left	Right	RightArrow	0	1.45332319999943	182.5	182.493483599999	183.001949200003	184.9935286
53	5	5	distractor	18	Right	Right	RightArrow	1	1.92912339999748	186	185.993523100002	186.499495800002	188.493395000001
54	5	6	distractor	16	Right	Right	RightArrow	1	1.15846220000094	189.5	189.493396000002	190.000361599999	191.993326400003
55	5	7	distractor	39	Right	Right	RightArrow	1	1.5020583000005	193	192.993417900001	193.5050539	195.493449699999
56	5	8	target	17	Left	Left	LeftArrow	1	1.65076979999867	196.5	196.493431300001	197.000355100001	198.9934316
57	5	9	target	38	Left	Right	RightArrow	0	1.25422160000016	200	199.9934684	200.505029200001	202.493441000002
58	5	10	distractor	59	Right	Left	LeftArrow	0	1.13023180000164	203.5	203.4933733	204.002710299999	205.9934397
59	5	11	target	37	Left	Right	RightArrow	0	2.0057945999979	207	206.993436500001	207.502327500002	209.493722499999
60	5	12	distractor	79	Right	Right	RightArrow	1	1.67424749999918	210.5	210.4934283	211.003932900003	212.993362500001
61	6	1	filler	21	None			NaN	0	214	213.993376400002	214.502933300002	216.496941500001
62	6	2	filler	40	None			NaN	0	217.5	217.504746099999	218.004387000001	219.997024200002
63	6	3	target	20	Left	Left	LeftArrow	1	1.2389351999991	221	221.011421900002	221.499682600002	223.4936911
64	6	4	distractor	62	Right	Right	RightArrow	1	2.18419059999724	224.5	224.493391	225.000716000002	226.994630700003
65	6	5	distractor	82	Right	Right	RightArrow	1	1.54730539999946	228	227.9934488	228.502316000002	230.493475700001
66	6	6	target	61	Left	Left	LeftArrow	1	1.75669449999987	231.5	231.493326100001	232.003750200001	233.993462400002
67	6	7	target	83	Left	Right	RightArrow	0	0.967117600001075	235	234.9934392	235.5005313	237.4934431
68	6	8	target	63	Left	Left	LeftArrow	1	1.24179529999674	238.5	238.493380600001	238.998729000003	240.993465300002
69	6	9	target	84	Left	Right	RightArrow	0	0.409636000000319	242	241.993362200003	242.501575800001	244.493451500002
70	6	10	distractor	41	Right	Left	LeftArrow	0	0.449793699997826	245.5	245.493347600001	246.003822000002	247.993516400002
71	6	11	distractor	42	Right	Left	LeftArrow	0	0.319099699998333	249	248.993386000002	249.499399300003	251.493345300001
72	6	12	distractor	19	Right	Right	RightArrow	1	1.49934679999933	252.5	252.493351500001	252.999185000001	254.9935391
