trial_id	block	trial	type	stim_id	cresp	resp	resp_raw	acc	rt	trial_start_time_expt	trial_start_time	stim_onset_time	stim_offset_time
1	1	1	filler	48	None			NaN	0	4	3.99352680006996	4.54412430000957	6.49776290007867
2	1	2	filler	68	None			NaN	0	7.5	7.52045400009956	8.00481480010785	9.99802390008699
3	1	3	target	46	Left	Left	LeftArrow	1	1.37473379995208	11	11.0082107000053	11.5368904001079	13.4934416000033
4	1	4	distractor	47	Right	Left	LeftArrow	0	1.36483519989997	14.5	14.493402400054	15.0346432001097	16.993414000026
5	1	5	distractor	26	Right	Right	RightArrow	1	1.02282620000187	18	17.9932945000473	18.5400647000642	20.4934532000916
6	1	6	distractor	27	Right	Right	RightArrow	1	1.72140169993509	21.5	21.4934528000886	22.0357695000712	23.9935189000098
7	1	7	distractor	5	Right	Left	LeftArrow	0	1.43016940006055	25	24.9934619000414	25.5368026000215	27.4933715000516
8	1	8	target	25	Left	Right	RightArrow	0	1.70349970005918	28.5	28.4934608000331	29.0347425000509	30.9934886000119
9	1	9	target	4	Left	Left	LeftArrow	1	0.808850899920799	32	31.9934487000573	32.5038797000889	34.4934332000557
10	1	10	distractor	69	Right	Right	RightArrow	1	1.18481610005256	35.5	35.4932970000664	36.0001892000437	37.9934640000574
11	1	11	target	6	Left	Right	RightArrow	0	1.47622239997145	39	38.9931093000341	39.5346118001034	41.4935358000221
12	1	12	target	67	Left	Left	LeftArrow	1	0.916376700042747	42.5	42.4935278000776	42.9997330000624	44.9934217000846
13	2	1	filler	9	None	Right	RightArrow	NaN	1.24243260000367	46	45.9938028000761	46.5043129000114	48.4934014000464
14	2	2	filler	30	None			NaN	0	49.5	49.4934988000896	50.0367317000637	51.9955309000798
15	2	3	target	7	Left	Left	LeftArrow	1	1.07812740001827	53	53.0106726000085	53.5341862000059	55.493437300087
16	2	4	target	28	Left	Right	RightArrow	0	1.08023980003782	56.5	56.493462500046	56.9983719000593	58.9934639000567
17	2	5	distractor	71	Right	Right	RightArrow	1	1.36477570002899	60	59.9933110000566	60.5369696000125	62.4934666000772
18	2	6	target	29	Left	Left	LeftArrow	1	0.765469599980861	63.5	63.4934478000505	64.0393332000822	65.9934862001101
19	2	7	distractor	8	Right	Left	LeftArrow	0	1.71482139988802	67	66.9934053000761	67.4958256001119	69.4934484000551
20	2	8	distractor	72	Right	Left	LeftArrow	0	1.40250919992104	70.5	70.4934431000147	70.9973207000876	72.9934495000634
21	2	9	distractor	50	Right	Right	RightArrow	1	0.987350700073875	74	73.9935434000799	74.5362207000144	76.4933729000622
22	2	10	target	70	Left	Right	RightArrow	0	0.873460099915974	77.5	77.4934690000955	78.0049184000818	79.9929934000829
23	2	11	target	49	Left	Right	RightArrow	0	1.45467720006127	81	80.9939290001057	81.5006632000441	83.4934270000085
24	2	12	distractor	51	Right			-1	0	84.5	84.4934141000267	85.000225200085	86.9999647000805
25	3	1	filler	31	None			NaN	0	88	88.0073631000705	88.5367234000005	90.4947773000458
26	3	2	filler	10	None			NaN	0	91.5	91.5090785000939	92.0350042000646	93.9978823000565
27	3	3	distractor	53	Right	Left	LeftArrow	0	1.1697470000945	95	95.006602800102	95.5026002000086	97.493452200084
28	3	4	target	12	Left			-1	0	98.5	98.4940529000014	99.0372514000628	100.995750800008
29	3	5	distractor	74	Right	Left	LeftArrow	0	0.610224499949254	102	102.006872000056	102.539163300069	104.493466300075
30	3	6	target	11	Left	Left	LeftArrow	1	1.07654369994998	105.5	105.493434800068	106.041320200078	107.993453800096
31	3	7	target	75	Left	Right	RightArrow	0	1.07355029997416	109	108.99352680007	109.537908200058	111.493175700074
32	3	8	distractor	54	Right	Right	RightArrow	1	0.800751599948853	112.5	112.493484100094	113.038308200077	114.993084400077
33	3	9	distractor	32	Right	Left	LeftArrow	0	1.06841269996949	116	115.993422200088	116.538401700091	118.493452600087
34	3	10	target	52	Left	Right	RightArrow	0	1.24721350008622	119.5	119.493165799999	120.036251100013	121.993522100034
35	3	11	target	33	Left	Left	LeftArrow	1	0.439167199889198	123	122.993428200018	123.53906170011	125.493450000067
36	3	12	distractor	73	Right	Right	RightArrow	1	0.382470699958503	126.5	126.493431300041	127.036812000093	128.993482700083
37	4	1	filler	13	None			NaN	0	130	129.993375100079	130.539488200098	132.494498400018
38	4	2	filler	14	None			NaN	0	133.5	133.505840500002	133.999498700025	135.996727500111
39	4	3	target	15	Left	Left	LeftArrow	1	0.91412610001862	137	137.006117000012	137.537193900091	139.493450900074
40	4	4	distractor	56	Right	Right	RightArrow	1	0.85727959999349	140.5	140.493067300064	141.003585800063	142.993453800096
41	4	5	distractor	76	Right	Right	RightArrow	1	1.12273079995066	144	143.993458200013	144.503558000084	146.493460900034
42	4	6	target	55	Left	Right	RightArrow	0	0.84134369995445	147.5	147.493476400035	148.004016200081	149.993529600091
43	4	7	target	78	Left	Right	RightArrow	0	0.958756300038658	151	150.993371200049	151.503462900058	153.49339930003
44	4	8	distractor	36	Right	Left	LeftArrow	0	1.42900259990711	154.5	154.493406900088	155.035649500089	156.993455100106
45	4	9	target	77	Left	Right	RightArrow	0	0.94897020002827	158	157.993340100045	158.501473900047	160.493500600103
46	4	10	target	35	Left	Right	RightArrow	0	1.2579393000342	161.5	161.493442600011	162.001849499997	163.993742800085
47	4	11	distractor	34	Right	Right	RightArrow	1	0.898991300025955	165	164.99345910002	165.504347300041	167.493796100025
48	4	12	distractor	57	Right	Right	RightArrow	1	0.924698399961926	168.5	168.493451000075	169.002635400044	170.993539400049
49	5	1	filler	58	None			NaN	0	172	171.993447500048	172.503324900055	174.500101900077
50	5	2	filler	81	None			NaN	0	175.5	175.512832500041	176.003810500028	177.995047600009
51	5	3	target	60	Left	Left	LeftArrow	1	1.62444599997252	179	179.007450000034	179.49980650004	181.49353200011
52	5	4	target	80	Left	Right	RightArrow	0	0.802502899896353	182.5	182.493597000022	183.03828200011	184.99360850011
53	5	5	distractor	18	Right	Right	RightArrow	1	1.63961680000648	186	185.993719400023	186.538438600022	188.493472700007
54	5	6	distractor	16	Right	Right	RightArrow	1	1.77489210001659	189.5	189.493039000081	190.036498100031	191.993598600035
55	5	7	distractor	39	Right	Right	RightArrow	1	1.1182153999107	193	192.993431400042	193.539442000096	195.493458800018
56	5	8	target	17	Left	Right	RightArrow	0	1.65858119993936	196.5	196.493465500069	197.036919400096	198.993091700017
57	5	9	target	38	Left	Right	RightArrow	0	1.31279320002068	200	199.993435800076	200.535670600017	202.493468900095
58	5	10	distractor	59	Right	Right	RightArrow	1	1.91674460005015	203.5	203.493447100045	204.037629700033	205.9934717
59	5	11	target	37	Left	Right	RightArrow	0	1.28720729995985	207	206.993453100091	207.502334200079	209.493471199996
60	5	12	distractor	79	Right			-1	0	210.5	210.493484300096	211.040124600055	212.994379600044
61	6	1	filler	21	None			NaN	0	214	214.005652600084	214.541808600072	216.494456500048
62	6	2	filler	40	None			NaN	0	217.5	217.508992800023	218.004574800027	219.994171100087
63	6	3	target	20	Left	Left	LeftArrow	1	2.48997250001412	221	221.011509000091	221.537004600046	223.497981599998
64	6	4	distractor	62	Right	Right	RightArrow	1	1.24168770003598	224.5	224.493408900104	225.039192400058	226.993443700019
65	6	5	distractor	82	Right	Left	LeftArrow	0	1.82430189999286	228	227.993426200002	228.503904800047	230.493607800105
66	6	6	target	61	Left			-1	0	231.5	231.493418700062	231.999202700099	233.994780300069
67	6	7	target	83	Left	Right	RightArrow	0	0.833466300042346	235	235.010340700042	235.501086200005	237.493447300047
68	6	8	target	63	Left	Left	LeftArrow	1	0.568965299986303	238.5	238.493362800102	239.001539100078	240.993481400074
69	6	9	target	84	Left	Right	RightArrow	0	1.80199029995129	242	241.993460700032	242.501448500087	244.493450000067
70	6	10	distractor	41	Right	Right	RightArrow	1	0.699583499925211	245.5	245.493236600072	246.039456000086	247.993396700011
71	6	11	distractor	42	Right	Left	LeftArrow	0	1.48491150001064	249	248.993483300088	249.532733500004	251.493484700099
72	6	12	distractor	19	Right	Left	LeftArrow	0	1.29702269996051	252.5	252.493475300027	253.034407200059	254.993519100011
