trial_id	block	trial	type	stim_id	cresp	resp	resp_raw	acc	rt	trial_start_time_expt	trial_start_time	stim_onset_time	stim_offset_time
1	1	1	filler	5	None			NaN	0	4	3.99350010004127	4.50844710000092	6.499077400018
2	1	2	filler	25	None			NaN	0	7.5	7.50580810004612	8.00243940000655	9.99408390000463
3	1	3	target	4	Left	Right	RightArrow	0	1.66840800002683	11	11.0073155000573	11.4974882000242	13.4934060000232
4	1	4	target	27	Left	Left	LeftArrow	1	2.03337790002115	14.5	14.4934304000344	14.9994530000258	16.9938808000297
5	1	5	target	6	Left	Right	RightArrow	0	1.58672739996109	18	17.9932818000088	18.4992637000396	20.4934573000064
6	1	6	distractor	48	Right	Right	RightArrow	1	0.885852899984457	21.5	21.4934753000271	21.9990260000341	23.9931346000521
7	1	7	distractor	46	Right	Right	RightArrow	1	2.53255569998873	25	24.9933780000429	25.4992988000158	27.4957775000366
8	1	8	target	47	Left			-1	0	28.5	28.4936335000093	28.9990875000367	31.0008282000199
9	1	9	distractor	26	Right	Right	RightArrow	1	1.99257920001401	32	32.0076454000082	32.4988502000342	34.4950100000133
10	1	10	distractor	67	Right	Right	RightArrow	1	2.6614785999991	35.5	35.4934646000038	35.9975218000473	37.9954812000506
11	1	11	distractor	68	Right	Left	LeftArrow	0	1.86874469998293	39	38.9934686000342	39.4977523000562	41.4934626000468
12	1	12	target	69	Left	Right	RightArrow	0	1.489806699974	42.5	42.4932763000252	43.0001194000361	44.9936486000079
13	2	1	filler	30	None	Right	RightArrow	NaN	2.57705459999852	46	45.9937905000406	46.5015024000313	48.4986950000166
14	2	2	filler	49	None	Right	RightArrow	NaN	2.03467920003459	49.5	49.4934178000549	49.996392800007	51.9970082000364
15	2	3	distractor	71	Right	Left	LeftArrow	0	1.6997582000331	53	52.9933351000072	53.4983051000163	55.4934503000113
16	2	4	distractor	8	Right	Right	RightArrow	1	1.65492639999138	56.5	56.4933905000216	57.001825000043	58.9934404000524
17	2	5	target	72	Left	Left	LeftArrow	1	1.9704576000222	60	59.9933922000346	60.5013116000337	62.4933715000516
18	2	6	target	7	Left	Right	RightArrow	0	0.624632999999449	63.5	63.4934612000361	63.9973426000215	65.9934471000452
19	2	7	distractor	50	Right	Right	RightArrow	1	1.27907950000372	67	66.993479100056	67.495873900014	69.4934414000018
20	2	8	target	9	Left	Right	RightArrow	0	1.01284919999307	70.5	70.4929936000262	70.9987686000532	72.9934768000385
21	2	9	target	51	Left	Left	LeftArrow	1	0.810737900028471	74	73.9934852000442	74.4988712000195	76.4933760000276
22	2	10	distractor	29	Right	Right	RightArrow	1	1.42978389997734	77.5	77.4934661000152	77.9963038000278	79.9933155000326
23	2	11	distractor	70	Right	Left	LeftArrow	0	1.71403189998819	81	80.9939965000376	81.5017632000381	83.4934186000028
24	2	12	target	28	Left			-1	0	84.5	84.4934157000389	84.9998945000116	86.9994769000332
25	3	1	filler	33	None			NaN	0	88	88.0049011000083	88.4985171000008	90.4950152000529
26	3	2	filler	54	None			NaN	0	91.5	91.5096258000121	91.997061000031	93.9940164000145
27	3	3	distractor	75	Right	Right	RightArrow	1	1.7508181000012	95	95.0067700000363	95.4997180000064	97.4934410999995
28	3	4	distractor	10	Right			-1	0	98.5	98.4934274000116	98.9976904000505	100.997172500007
29	3	5	target	73	Left	Right	RightArrow	0	1.86235559999477	102	102.006661100022	102.493400000036	104.49348600005
30	3	6	target	12	Left	Left	LeftArrow	1	1.10780470003374	105.5	105.493481600017	106.001461200009	107.993450600014
31	3	7	target	74	Left	Right	RightArrow	0	1.57515500002773	109	108.993460700032	109.497678000014	111.49362230004
32	3	8	distractor	53	Right	Left	LeftArrow	0	0.71918320003897	112.5	112.493434300006	112.996218200016	114.993371600052
33	3	9	distractor	32	Right	Right	RightArrow	1	0.84680430003209	116	115.993399600033	116.496721000003	118.493318100052
34	3	10	target	52	Left			-1	0	119.5	119.493454600044	120.000000700005	121.99412680004
35	3	11	target	31	Left	Left	LeftArrow	1	1.02861320000375	123	123.003363300057	123.501927400008	125.493445500033
36	3	12	distractor	11	Right	Left	LeftArrow	0	1.9517954000039	126.5	126.493447500048	126.996190500038	128.993442600011
37	4	1	filler	56	None	Right	RightArrow	NaN	0.525506099977065	130	129.993199900026	130.496632000024	132.49341590004
38	4	2	filler	55	None			NaN	0	133.5	133.493412300013	133.997925000032	135.997876000009
39	4	3	distractor	13	Right	Right	RightArrow	1	1.51863350003259	137	137.009213500016	137.498115000024	139.493379600055
40	4	4	distractor	14	Right	Left	LeftArrow	0	2.44437559996732	140.5	140.493467700027	141.000822300033	142.994379200041
41	4	5	distractor	78	Right			-1	0	144	143.993481500016	144.497895600041	146.49382870004
42	4	6	target	15	Left	Left	LeftArrow	1	1.67823210003553	147.5	147.504144400009	147.999077300017	149.993523700046
43	4	7	target	76	Left	Left	LeftArrow	1	2.05206999997608	151	150.993414100027	151.499655000051	153.496332400013
44	4	8	distractor	36	Right	Right	RightArrow	1	0.856062799983192	154.5	154.493319900008	155.000506800017	156.993398400024
45	4	9	target	77	Left	Left	LeftArrow	1	2.65559520001989	158	157.993279200047	158.496631600021	160.496903900057
46	4	10	target	35	Left	Right	RightArrow	0	1.38346560002537	161.5	161.493441300001	162.001048900012	163.99319280003
47	4	11	distractor	57	Right	Right	RightArrow	1	1.43417449999833	165	164.993041800044	165.496595400036	167.493363400048
48	4	12	target	34	Left	Left	LeftArrow	1	1.46347069996409	168.5	168.493482800026	168.996932800044	170.993452100025
49	5	1	filler	58	None			NaN	0	172	171.993447400047	172.501827800006	174.498814200051
50	5	2	filler	18	None			NaN	0	175.5	175.504648100003	175.996122200042	177.999151800002
51	5	3	target	60	Left	Left	LeftArrow	1	1.25656720000552	179	179.000414500013	179.498412300018	181.493495200004
52	5	4	target	16	Left	Left	LeftArrow	1	2.56322229997022	182.5	182.493579400005	182.996536700055	184.996763700037
53	5	5	distractor	80	Right	Right	RightArrow	1	1.43290920002619	186	185.993443400017	186.500176300004	188.493464500003
54	5	6	target	17	Left	Right	RightArrow	0	2.48760260001291	189.5	189.493414300028	190.001402200025	191.996405600046
55	5	7	distractor	38	Right	Left	LeftArrow	0	1.01053750002757	193	192.993404000008	193.498465300014	195.493320900016
56	5	8	distractor	81	Right	Left	LeftArrow	0	2.2460058000288	196.5	196.49336240004	196.996705700003	198.994360400015
57	5	9	target	37	Left	Right	RightArrow	0	1.64450680004666	200	199.993073600053	200.502469800005	202.493456600001
58	5	10	distractor	59	Right	Right	RightArrow	1	1.87948080000933	203.5	203.493475000025	204.000131800014	205.993472000002
59	5	11	target	39	Left	Left	LeftArrow	1	2.90725330001442	207	206.993143600004	207.493412500015	209.494248700037
60	5	12	distractor	79	Right	Right	RightArrow	1	1.68398100003833	210.5	210.49353690003	210.995865400007	212.993487800006
61	6	1	filler	42	None			NaN	0	214	213.993437100027	214.501917500049	216.498545700044
62	6	2	filler	83	None			NaN	0	217.5	217.509083100013	218.000940700003	219.999363200041
63	6	3	target	40	Left	Left	LeftArrow	1	1.72831310000038	221	221.007752500009	221.500852800033	223.493651300028
64	6	4	target	84	Left			-1	0	224.5	224.493412500015	225.001206300047	226.996424200013
65	6	5	distractor	61	Right	Right	RightArrow	1	2.06152079999447	228	228.008723900013	228.499747400056	230.495647600037
66	6	6	target	82	Left	Left	LeftArrow	1	1.21365849999711	231.5	231.493405700021	231.996055200056	233.993476100033
67	6	7	distractor	19	Right	Left	LeftArrow	0	2.48220790002961	235	234.993455100048	235.498243600014	237.499408100033
68	6	8	distractor	41	Right	Left	LeftArrow	0	2.15914890001295	238.5	238.493349900004	238.999636200024	240.997802600032
69	6	9	distractor	63	Right	Right	RightArrow	1	1.2578363000066	242	241.993469900044	242.499700000044	244.493471300055
70	6	10	distractor	21	Right	Right	RightArrow	1	1.17412729997886	245.5	245.493361900037	245.997159300023	247.993381100008
71	6	11	target	62	Left	Left	LeftArrow	1	1.00006430002395	249	248.993084800022	249.496568200004	251.493080900051
72	6	12	target	20	Left	Right	RightArrow	0	1.83263449999504	252.5	252.493053500017	252.998067700013	254.993519100011
