trial_id	block	trial	type	stim_id	cresp	resp	resp_raw	acc	rt	trial_start_time_expt	trial_start_time	stim_onset_time	stim_offset_time
1	1	1	filler	41	None			NaN	0	4	3.99344000010751	4.50473840010818	6.49899820005521
2	1	2	filler	42	None			NaN	0	7.5	7.51238870003726	7.99899570003618	9.99568859999999
3	1	3	distractor	5	Right	Right	RightArrow	1	1.18861959991045	11	11.0074642000254	11.5007018001052	13.4935580000747
4	1	4	target	43	Left	Left	LeftArrow	1	1.77298410004005	14.5	14.4935841000406	15.0008944000583	16.9937599000987
5	1	5	target	7	Left	Right	RightArrow	0	2.03109039994888	18	17.9934454000322	18.5017552000936	20.4983016001061
6	1	6	distractor	6	Right	Right	RightArrow	1	2.18684530002065	21.5	21.4934769000392	22.0001592000481	23.9952035000315
7	1	7	target	9	Left			-1	0	25	24.9933997000335	25.4996068000328	27.4973426000215
8	1	8	distractor	45	Right	Right	RightArrow	1	2.24460800003726	28.5	28.5091155000264	29.0023133000359	30.9993797000498
9	1	9	distractor	44	Right	Left	LeftArrow	0	1.37697300000582	32	31.993450500071	32.5006176000461	34.4934543001
10	1	10	distractor	10	Right	Right	RightArrow	1	0.987674599979073	35.5	35.4934554001084	36.0007989000296	37.9931229000213
11	1	11	target	46	Left			-1	0	39	38.9934517000802	39.5012421000283	41.4992159000831
12	1	12	target	8	Left			-1	0	42.5	42.5073500000872	42.9934763000347	44.9961939000059
13	2	1	filler	51	None			NaN	0	46	46.0055260000518	46.5018389000325	48.4981520000147
14	2	2	filler	12	None			NaN	0	49.5	49.5089435001137	50.0013426000951	51.9994189999998
15	2	3	distractor	14	Right	Right	RightArrow	1	2.24246129998937	53	53.0049554000143	53.5039847000735	55.4942582000513
16	2	4	distractor	47	Right	Right	RightArrow	1	1.54422300006263	56.5	56.4933707000455	56.9934016000479	58.9934266000055
17	2	5	distractor	49	Right	Left	LeftArrow	0	1.18352219997905	60	59.993425300112	60.5015124001075	62.4934740000172
18	2	6	target	52	Left	Left	LeftArrow	1	1.6195669999579	63.5	63.493312900071	64.0002233000705	65.9933819000144
19	2	7	target	50	Left	Left	LeftArrow	1	1.32715289993212	67	66.9934038000647	67.5004373000702	69.493379300111
20	2	8	target	48	Left	Left	LeftArrow	1	0.753737600054592	70.5	70.4934623000445	70.9991965000518	72.9934638000559
21	2	9	distractor	16	Right	Right	RightArrow	1	1.39523220004048	74	73.9931358000031	74.4987621000037	76.493454700103
22	2	10	distractor	13	Right	Right	RightArrow	1	2.73406080005225	77.5	77.4934254001128	77.9968726000516	79.9976399000734
23	2	11	target	11	Left	Left	LeftArrow	1	2.91746919997968	81	80.9934414000018	81.5008210000815	83.4977417000337
24	2	12	target	15	Left	Left	LeftArrow	1	2.08322709996719	84.5	84.4933619000949	85.0031941001071	86.9960035000695
25	3	1	filler	17	None			NaN	0	88	87.9938474000664	88.4964364001062	90.4988079000032
26	3	2	filler	57	None			NaN	0	91.5	91.5089374000672	91.9979909000685	93.9981286000693
27	3	3	distractor	53	Right	Left	LeftArrow	0	2.29431340005249	95	95.005917100003	95.4985479000024	97.4942559000337
28	3	4	distractor	20	Right	Right	RightArrow	1	1.93463249993511	98.5	98.4934757000301	98.9985575000755	100.993371800054
29	3	5	target	58	Left			-1	0	102	101.993464500061	102.498728100094	104.49950210005
30	3	6	distractor	56	Right	Right	RightArrow	1	1.82102030003443	105.5	105.50887790008	105.99337390007	107.993445800035
31	3	7	target	55	Left	Left	LeftArrow	1	1.9514384000795	109	108.993451500079	109.501348100021	111.493432200048
32	3	8	distractor	21	Right	Right	RightArrow	1	2.39590649993625	112.5	112.493486899999	112.997629600111	114.995755200041
33	3	9	target	54	Left			-1	0	116	115.993456800003	116.500367200002	118.494830000098
34	3	10	target	22	Left	Right	RightArrow	0	0.566992899985053	119.5	119.508280700073	119.993526400067	121.993460500031
35	3	11	distractor	19	Right	Right	RightArrow	1	1.35793709999416	123	122.993065800052	123.501058000023	125.493086700095
36	3	12	target	18	Left	Right	RightArrow	0	2.49301199999172	126.5	126.493435200071	127.001427800045	128.99748000002
37	4	1	filler	24	None			NaN	0	130	129.9934564	130.499291400076	132.494094400085
38	4	2	filler	63	None			NaN	0	133.5	133.507770700031	134.003625700017	135.99859870004
39	4	3	target	26	Left			-1	0	137	137.001879100106	137.504083300009	139.497152400087
40	4	4	distractor	23	Right	Right	RightArrow	1	1.9950308999978	140.5	140.507414700114	140.993438700098	142.993218600051
41	4	5	distractor	59	Right	Right	RightArrow	1	2.29218699992634	144	143.99357140006	144.503544600098	146.494296600111
42	4	6	target	27	Left	Right	RightArrow	0	1.98276539996732	147.5	147.493378800107	147.999051900115	149.993323400035
43	4	7	distractor	25	Right	Left	LeftArrow	0	2.11637699999847	151	150.993466800079	151.499704500078	153.497393200058
44	4	8	target	28	Left	Right	RightArrow	0	1.40179669996724	154.5	154.493387500057	155.000055300072	156.993496600073
45	4	9	distractor	64	Right	Right	RightArrow	1	1.89737709995825	158	157.993435400072	158.499153700075	160.493485700106
46	4	10	distractor	62	Right	Left	LeftArrow	0	1.14224929991178	161.5	161.49342240009	162.000901800115	163.993338000029
47	4	11	target	60	Left	Left	LeftArrow	1	2.88399020000361	165	164.99344780005	165.500720100012	167.497091900092
48	4	12	target	61	Left	Left	LeftArrow	1	0.679568700026721	168.5	168.493383600027	169.001931300038	170.993453600095
49	5	1	filler	32	None			NaN	0	172	171.99343770009	172.501490700059	174.497807100066
50	5	2	filler	34	None			NaN	0	175.5	175.504759400035	176.001164000016	177.995177000063
51	5	3	target	31	Left	Left	LeftArrow	1	2.13700670003891	179	179.009270700044	179.500887000002	181.49586200004
52	5	4	distractor	65	Right	Right	RightArrow	1	0.909158500027843	182.5	182.49346040003	183.002524400013	184.993451900082
53	5	5	distractor	68	Right	Left	LeftArrow	0	2.44491139997263	186	185.99346300005	186.502766200108	188.497397800093
54	5	6	distractor	30	Right	Right	RightArrow	1	1.63471860007849	189.5	189.493522500037	189.999511700007	191.993465200067
55	5	7	target	70	Left	Left	LeftArrow	1	1.68468750000466	193	192.99344780005	193.495883700089	195.493437600089
56	5	8	distractor	67	Right	Right	RightArrow	1	0.825699800043367	196.5	196.493483800092	197.000032900018	198.993406400084
57	5	9	target	66	Left	Right	RightArrow	0	1.37174229999073	200	199.993346700096	200.497778800083	202.49346570007
58	5	10	distractor	29	Right	Right	RightArrow	1	2.26287119998597	203.5	203.493358700071	204.00010970002	205.993884200114
59	5	11	target	69	Left	Right	RightArrow	0	2.6962680000579	207	206.993495100061	207.502037200029	209.495016600005
60	5	12	target	33	Left	Right	RightArrow	0	2.8274875000352	210.5	210.493451600079	211.002773100045	212.997933600098
61	6	1	filler	38	None			NaN	0	214	213.99342850002	214.502499300055	216.498783300049
62	6	2	filler	37	None			NaN	0	217.5	217.504552700091	218.002926100045	219.99855420005
63	6	3	distractor	75	Right	Left	LeftArrow	0	2.66724690003321	221	221.004405000014	221.501654800028	223.497782700113
64	6	4	target	36	Left	Right	RightArrow	0	0.837994999950752	224.5	224.493544600089	224.999823400052	226.993527500075
65	6	5	target	76	Left	Right	RightArrow	0	1.44071219989564	228	227.993590200087	228.498194800108	230.493634900078
66	6	6	distractor	71	Right			-1	0	231.5	231.492863100022	231.999170800089	233.994310900103
67	6	7	target	74	Left	Right	RightArrow	0	2.2415403999621	235	235.006038100109	235.501344200107	237.495439000078
68	6	8	target	73	Left			-1	0	238.5	238.493470700108	238.99783300003	240.997983000008
69	6	9	distractor	39	Right	Left	LeftArrow	0	0.826508900034241	242	242.007522700005	242.498348900001	244.493055300089
70	6	10	distractor	40	Right	Right	RightArrow	1	0.581764000002295	245.5	245.49340450007	245.993411100004	247.993191900081
71	6	11	target	35	Left	Left	LeftArrow	1	1.33941010001581	249	248.993488700013	249.503480400075	251.493481600075
72	6	12	distractor	72	Right	Right	RightArrow	1	0.942377800005488	252.5	252.493283300078	252.999620100018	254.993455900112
