trial_id	block	trial	type	stim_id	cresp	resp	resp_raw	acc	rt	trial_start_time_expt	trial_start_time	stim_onset_time	stim_offset_time
1	1	1	filler	48	None			NaN	0	4	3.99344230000861	4.5410384000279	6.49649649998173
2	1	2	filler	68	None			NaN	0	7.5	7.50967469997704	8.040301800007	9.99957210000139
3	1	3	target	46	Left	Left	LeftArrow	1	1.54274830000941	11	11.0067548999796	11.5392714000773	13.4934637000551
4	1	4	distractor	47	Right	Left	LeftArrow	0	0.796054899925366	14.5	14.4930387000786	15.0419765000697	16.9933618999785
5	1	5	distractor	26	Right	Right	RightArrow	1	1.19754850002937	18	17.9933768999763	18.5405283999862	20.4931783999782
6	1	6	distractor	27	Right	Right	RightArrow	1	2.7220123000443	21.5	21.493447600049	22.0359568999847	23.9965406000847
7	1	7	distractor	5	Right	Right	RightArrow	1	1.83628040004987	25	24.9934397999896	25.5431934000226	27.4934552999912
8	1	8	target	25	Left	Right	RightArrow	0	1.38859009998851	28.5	28.4934295000276	29.0369451000588	30.9934937000507
9	1	9	target	4	Left	Right	RightArrow	0	1.29857520002406	32	31.9934595000232	32.5382512999931	34.4935518000275
10	1	10	distractor	69	Right			-1	0	35.5	35.4934412000002	36.0349826000165	37.997569500003
11	1	11	target	6	Left	Right	RightArrow	0	1.73549170000479	39	39.0028947000392	39.5413485000608	41.4934308000375
12	1	12	target	67	Left	Left	LeftArrow	1	1.07837330002803	42.5	42.4930648000445	43.0425159999868	44.9934651000658
13	2	1	filler	9	None			NaN	0	46	45.9931357000023	46.5048028000165	48.4953551000217
14	2	2	filler	30	None			NaN	0	49.5	49.510507500032	50.0406237000134	51.9946845000377
15	2	3	target	7	Left	Left	LeftArrow	1	1.52594520000275	53	53.0043236999772	53.5367622000631	55.4934623000445
16	2	4	target	28	Left	Left	LeftArrow	1	0.875191499944776	56.5	56.4934420000063	57.0408263000427	58.9934374000877
17	2	5	distractor	71	Right	Right	RightArrow	1	2.07009920000564	60	59.9933671000181	60.5375831000274	62.4972615999868
18	2	6	target	29	Left	Left	LeftArrow	1	0.897116400068626	63.5	63.493464600062	64.0397473999765	65.9929805999855
19	2	7	distractor	8	Right			-1	0	67	66.9934776000446	67.5364712000592	69.4980216000695
20	2	8	distractor	72	Right	Left	LeftArrow	0	1.4494586000219	70.5	70.499951899983	71.0036125000333	72.9933161999797
21	2	9	distractor	50	Right	Right	RightArrow	1	1.70395589992404	74	73.9934562999988	74.5397267000517	76.4934087999864
22	2	10	target	70	Left	Left	LeftArrow	1	1.25997629994527	77.5	77.4933671000181	78.0398926000344	79.9934392999858
23	2	11	target	49	Left	Left	LeftArrow	1	1.44381299999077	81	80.9934181000572	81.5403026000131	83.4934489000589
24	2	12	distractor	51	Right	Right	RightArrow	1	1.28597179998178	84.5	84.4934624000452	85.0000035000267	86.9934452000307
25	3	1	filler	31	None			NaN	0	88	87.9933549000416	88.5427944000112	90.4980057000648
26	3	2	filler	10	None			NaN	0	91.5	91.5060813000891	92.0355223000515	93.997542600031
27	3	3	distractor	53	Right	Left	LeftArrow	0	2.76969610003289	95	95.0090456000762	95.5035770999966	97.4992071000161
28	3	4	target	12	Left	Right	RightArrow	0	2.54232670005877	98.5	98.4934970000759	98.9934535999782	100.997308099992
29	3	5	distractor	74	Right	Left	LeftArrow	0	2.47757009998895	102	101.993433900061	102.539379600086	104.498811500031
30	3	6	target	11	Left	Right	RightArrow	0	2.39675580000039	105.5	105.49365790002	106.041324899998	107.998667099979
31	3	7	target	75	Left	Left	LeftArrow	1	0.320935599971563	109	108.993438699981	109.537004700047	111.493398500024
32	3	8	distractor	54	Right	Left	LeftArrow	0	0.582982600084506	112.5	112.493468399975	113.040224299999	114.993469799985
33	3	9	distractor	32	Right	Left	LeftArrow	0	1.03946620004717	116	115.993401100044	116.511912000016	118.493131300085
34	3	10	target	52	Left	Right	RightArrow	0	1.09096770000178	119.5	119.493477200042	120.039348400082	121.993454899988
35	3	11	target	33	Left	Left	LeftArrow	1	0.650272200000472	123	122.99338400003	123.537372100051	125.49319920002
36	3	12	distractor	73	Right	Left	LeftArrow	0	0.758666999987327	126.5	126.493460300029	127.039456400089	128.993422599975
37	4	1	filler	13	None			NaN	0	130	129.993100200081	130.537896400085	132.494139500079
38	4	2	filler	14	None			NaN	0	133.5	133.5055804	134.002457300085	135.996541599976
39	4	3	target	15	Left	Left	LeftArrow	1	1.42935019999277	137	137.007110700011	137.539095000015	139.493381800014
40	4	4	distractor	56	Right	Right	RightArrow	1	2.87963490001857	140.5	140.493546299986	140.999236500007	142.996815500082
41	4	5	distractor	76	Right	Left	LeftArrow	0	2.27655950002372	144	143.993411600008	144.538450799999	146.49748790008
42	4	6	target	55	Left	Left	LeftArrow	1	1.9117134999251	147.5	147.493417600053	147.999307900085	149.993399800034
43	4	7	target	78	Left	Left	LeftArrow	1	1.27242039993871	151	150.993477100041	151.538841900066	153.493313400075
44	4	8	distractor	36	Right	Right	RightArrow	1	1.39333170000464	154.5	154.49302569998	155.034967900021	156.993332999991
45	4	9	target	77	Left	Left	LeftArrow	1	0.612374800024554	158	157.993476800038	158.539903299999	160.493397400016
46	4	10	target	35	Left	Right	RightArrow	0	0.715712000033818	161.5	161.493509400054	162.040780300042	163.993403800065
47	4	11	distractor	34	Right	Left	LeftArrow	0	0.523285700008273	165	164.993444100022	165.503354600049	167.493435500073
48	4	12	distractor	57	Right	Right	RightArrow	1	1.08165370009374	168.5	168.493374800077	169.000149899977	170.993662300054
49	5	1	filler	58	None			NaN	0	172	171.993465900072	172.539674300002	174.497624700074
50	5	2	filler	81	None			NaN	0	175.5	175.508878900087	176.005379899987	177.996023899992
51	5	3	target	60	Left	Left	LeftArrow	1	1.27028259995859	179	179.007185499999	179.498597000027	181.49328559998
52	5	4	target	80	Left	Right	RightArrow	0	1.67682339996099	182.5	182.493421700085	183.038927200017	184.993401800049
53	5	5	distractor	18	Right	Left	LeftArrow	0	2.08987879997585	186	185.993423399981	186.537121000001	188.496943500009
54	5	6	distractor	16	Right	Right	RightArrow	1	1.07022389990743	189.5	189.493061400019	190.041765000089	191.993431200041
55	5	7	distractor	39	Right	Right	RightArrow	1	1.87325499998406	193	192.993447400047	193.535766200046	195.493343000067
56	5	8	target	17	Left	Right	RightArrow	0	0.995925100054592	196.5	196.493434300064	197.03741400002	198.993434900069
57	5	9	target	38	Left	Right	RightArrow	0	1.95076699997298	200	199.993283100077	200.540474500041	202.495565699995
58	5	10	distractor	59	Right	Right	RightArrow	1	1.66206989996135	203.5	203.49346300005	204.040168300038	205.993352700025
59	5	11	target	37	Left	Right	RightArrow	0	1.7130852000555	207	206.993496600073	207.539734099992	209.49334460008
60	5	12	distractor	79	Right	Left	LeftArrow	0	1.30393809999805	210.5	210.493461300037	211.035229700035	212.99361330003
61	6	1	filler	21	None			NaN	0	214	213.993412800017	214.541459999979	216.494035699987
62	6	2	filler	40	None			NaN	0	217.5	217.502700700075	218.040973700001	219.994142399984
63	6	3	target	20	Left	Left	LeftArrow	1	1.11605269997381	221	221.009265200002	221.536236200016	223.493422699976
64	6	4	distractor	62	Right	Right	RightArrow	1	1.14042670000345	224.5	224.493436800083	225.034907100024	226.993506900035
65	6	5	distractor	82	Right	Right	RightArrow	1	1.02089040004648	228	227.993327100063	228.503581800032	230.49341980007
66	6	6	target	61	Left	Right	RightArrow	0	1.29775969998445	231.5	231.493430700037	232.002755100024	233.993109600036
67	6	7	target	83	Left	Right	RightArrow	0	2.09137699997518	235	234.993442700012	235.535538400058	237.498506000033
68	6	8	target	63	Left	Right	RightArrow	0	1.41291000007186	238.5	238.493481800077	239.000963500002	240.993436700082
69	6	9	target	84	Left	Right	RightArrow	0	1.62420269998256	242	241.993558900082	242.503861000063	244.493420000072
70	6	10	distractor	41	Right	Right	RightArrow	1	1.23201490007341	245.5	245.493535600021	246.037454299978	247.993516399991
71	6	11	distractor	42	Right	Right	RightArrow	1	1.68477709998842	249	248.993330899975	249.538070200011	251.49336339999
72	6	12	distractor	19	Right	Right	RightArrow	1	1.58229719998781	252.5	252.493396100006	253.037496700068	254.993442700012
