trial_id	block	trial	type	stim_id	cresp	resp	resp_raw	acc	rt	trial_start_time_expt	trial_start_time	stim_onset_time	stim_offset_time
1	1	1	filler	5	None			NaN	0	4	3.9933902999619	4.5121247000061	6.49360150005668
2	1	2	filler	25	None			NaN	0	7.5	7.50996880000457	7.99904280004557	9.99529350001831
3	1	3	target	4	Left	Right	RightArrow	0	1.1337967000436	11	11.0092860000441	11.4995144000277	13.4930585999973
4	1	4	target	27	Left	Right	RightArrow	0	2.75332630006596	14.5	14.4934575000079	14.9974307999946	16.9951156000607
5	1	5	target	6	Left			-1	0	18	17.9933856000425	18.4962462000549	20.4947656999575
6	1	6	distractor	48	Right			-1	0	21.5	21.5066301999614	22.0023604000453	23.9964501999784
7	1	7	distractor	46	Right			-1	0	25	25.0068069000263	25.4979540000204	27.4940124000423
8	1	8	target	47	Left	Right	RightArrow	0	0.991987999994308	28.5	28.5054648000514	29.0022824000334	30.9934474000474
9	1	9	distractor	26	Right	Left	LeftArrow	0	1.04506310005672	32	31.9934699999867	32.5016048999969	34.4934400999919
10	1	10	distractor	67	Right	Right	RightArrow	1	0.309463099925779	35.5	35.4930434999987	36.0012012000661	37.9934146000305
11	1	11	distractor	68	Right	Right	RightArrow	1	0.750678499927744	39	38.9930527000688	39.4976668000454	41.4933939999901
12	1	12	target	69	Left	Left	LeftArrow	1	1.10114909999538	42.5	42.4934149000328	42.9984500000719	44.9933965000091
13	2	1	filler	30	None			NaN	0	46	45.9935142999748	46.4968814000022	48.4944617999718
14	2	2	filler	49	None	Right	RightArrow	NaN	2.09464000002481	49.5	49.5071654999629	49.9961283999728	51.9983633999946
15	2	3	distractor	71	Right	Right	RightArrow	1	1.32201640005223	53	52.9934701999882	53.4964653999778	55.4934793000575
16	2	4	distractor	8	Right	Right	RightArrow	1	1.92937329993583	56.5	56.4934033000609	57.0019033000572	58.9932664000662
17	2	5	target	72	Left	Right	RightArrow	0	0.898778899922036	60	59.9934928000439	60.4963853000663	62.4940473999595
18	2	6	target	7	Left	Left	LeftArrow	1	0.665116099989973	63.5	63.4935875000665	63.9984447000315	65.9934257999994
19	2	7	distractor	50	Right	Right	RightArrow	1	0.390615700045601	67	66.9933594999602	67.4991303000133	69.4934441000223
20	2	8	target	9	Left	Right	RightArrow	0	0.583787000039592	70.5	70.4933240000391	70.993453699979	72.9934643000597
21	2	9	target	51	Left	Right	RightArrow	0	0.500225399970077	74	73.9934362999629	74.499435900012	76.4934817999601
22	2	10	distractor	29	Right	Right	RightArrow	1	1.39505090005696	77.5	77.4933510000119	78.0017104999861	79.9933983000228
23	2	11	distractor	70	Right	Right	RightArrow	1	0.64068860001862	81	80.9930158000207	81.497407100047	83.4934816999594
24	2	12	target	28	Left	Right	RightArrow	0	0.835707499994896	84.5	84.4933842000319	84.997517400072	86.9934410999995
25	3	1	filler	33	None	Right	RightArrow	NaN	0.611192099982873	88	87.9933985000243	88.4990222000051	90.4934794000583
26	3	2	filler	54	None	Left	LeftArrow	NaN	0.952513399999589	91.5	91.4935024000006	92.0010660999687	93.9933967000106
27	3	3	distractor	75	Right	Right	RightArrow	1	0.342499700025655	95	94.9934603000293	95.4975580000319	97.4934257999994
28	3	4	distractor	10	Right	Right	RightArrow	1	1.1434807999758	98.5	98.4934943000553	98.9997879000148	100.993442900013
29	3	5	target	73	Left			-1	0	102	101.99335470004	102.499202899984	104.499427400064
30	3	6	target	12	Left			-1	0	105.5	105.508503300021	106.001525399974	107.994140999974
31	3	7	target	74	Left	Right	RightArrow	0	1.69170490000397	109	109.008153700037	109.496218999964	111.493471299997
32	3	8	distractor	53	Right	Left	LeftArrow	0	0.852967399987392	112.5	112.493405799964	112.998362499988	114.993471499998
33	3	9	distractor	32	Right	Right	RightArrow	1	0.609791700029746	116	115.993494200055	116.496527699986	118.493380500004
34	3	10	target	52	Left	Left	LeftArrow	1	2.78501190000679	119.5	119.493395600002	120.000466400059	121.996367300046
35	3	11	target	31	Left	Right	RightArrow	0	0.0761376000009477	123	122.993394799996	123.497378000058	125.49348179996
36	3	12	distractor	11	Right	Right	RightArrow	1	0.828491399995983	126.5	126.493520100019	127.001481599989	128.993499799981
37	4	1	filler	56	None	Left	LeftArrow	NaN	1.39375279995147	130	129.993549800012	130.496776200016	132.493485599989
38	4	2	filler	55	None	Right	RightArrow	NaN	1.27962580008898	133.5	133.494100700016	133.997687199968	135.993424199987
39	4	3	distractor	13	Right	Right	RightArrow	1	0.912994600017555	137	136.993446300039	137.499615699984	139.493457600009
40	4	4	distractor	14	Right	Left	LeftArrow	0	0.665292100049555	140.5	140.49348439998	140.998045300017	142.993477400043
41	4	5	distractor	78	Right	Right	RightArrow	1	0.48637159995269	144	143.993455499993	144.49900010007	146.493096800055
42	4	6	target	15	Left	Left	LeftArrow	1	1.02415559999645	147.5	147.493048400036	148.00144110003	149.993416700047
43	4	7	target	76	Left	Right	RightArrow	0	0.273953500087373	151	150.99338530004	151.498729099985	153.493486399995
44	4	8	distractor	36	Right	Left	LeftArrow	0	0.75156370003242	154.5	154.493481200072	154.996075000032	156.99340929999
45	4	9	target	77	Left	Right	RightArrow	0	0.6194674000144	158	157.993315899977	158.500801300048	160.493014700012
46	4	10	target	35	Left	Right	RightArrow	0	0.297488300013356	161.5	161.493403500062	161.998880399973	163.993515599985
47	4	11	distractor	57	Right	Right	RightArrow	1	1.00856069999281	165	164.993370900047	165.500778799993	167.493611200014
48	4	12	target	34	Left	Right	RightArrow	0	2.64392830000725	168.5	168.493445300031	168.996439900016	170.999468200025
49	5	1	filler	58	None	Right	RightArrow	NaN	1.41869690001477	172	171.993342700065	172.496963300044	174.493462500046
50	5	2	filler	18	None	Right	RightArrow	NaN	0.470913900062442	175.5	175.493436899967	175.997610699967	177.993435300072
51	5	3	target	60	Left	Left	LeftArrow	1	1.23420409997925	179	178.993021700066	179.498826300027	181.493411200005
52	5	4	target	16	Left	Right	RightArrow	0	0.69366380001884	182.5	182.493075200007	182.99974270002	184.993398500024
53	5	5	distractor	80	Right			-1	0	186	185.993408399983	186.496319800033	188.494848900009
54	5	6	target	17	Left	Right	RightArrow	0	1.09219470003154	189.5	189.50813880004	190.001847399981	191.993402100052
55	5	7	distractor	38	Right	Right	RightArrow	1	0.482982499990612	193	192.993431500043	193.50126150006	195.4934259
56	5	8	distractor	81	Right	Left	LeftArrow	0	0.910328299971297	196.5	196.493303099996	197.00034420006	198.993398600025
57	5	9	target	37	Left	Right	RightArrow	0	0.512728999950923	200	199.993410299998	200.498233500053	202.493449400063
58	5	10	distractor	59	Right	Left	LeftArrow	0	1.04145560006145	203.5	203.493427600013	204.000441299984	205.993374300073
59	5	11	target	39	Left	Right	RightArrow	0	0.737862400012091	207	206.993455299991	207.493407599977	209.493639499997
60	5	12	distractor	79	Right			-1	0	210.5	210.493678200059	210.998245900031	212.999749600072
61	6	1	filler	42	None	Right	RightArrow	NaN	1.01457689993549	214	214.006491100066	214.50373830006	216.493385800044
62	6	2	filler	83	None			NaN	0	217.5	217.493735800032	217.998110500048	219.998328399961
63	6	3	target	40	Left	Right	RightArrow	0	0.793651900021359	221	221.008289300022	221.496769099962	223.493462500046
64	6	4	target	84	Left	Left	LeftArrow	1	1.45045939995907	224.5	224.493405199959	224.996013700031	226.993484799983
65	6	5	distractor	61	Right	Right	RightArrow	1	0.540167800034396	228	227.993190899957	228.496227900032	230.493490400026
66	6	6	target	82	Left	Left	LeftArrow	1	0.863663400057703	231.5	231.493349900004	231.997733099968	233.993454099982
67	6	7	distractor	19	Right	Right	RightArrow	1	0.947183200041763	235	234.993621199974	235.498151700012	237.493389899959
68	6	8	distractor	41	Right	Left	LeftArrow	0	0.58694079995621	238.5	238.493447100045	239.001439200016	240.993418000056
69	6	9	distractor	63	Right			-1	0	242	241.993324700044	242.498321900028	244.496203599963
70	6	10	distractor	21	Right			-1	0	245.5	245.503152900026	245.997125399997	247.995848200051
71	6	11	target	62	Left	Right	RightArrow	0	1.33154739998281	249	249.007969000028	249.498816500069	251.493486399995
72	6	12	target	20	Left	Right	RightArrow	0	1.28630719997454	252.5	252.493404400069	252.995968400035	254.993239399977
