trial_id	block	trial	type	stim_id	cresp	resp	resp_raw	acc	rt	trial_start_time_expt	trial_start_time	stim_onset_time	stim_offset_time
1	1	1	filler	5	None			NaN	0	4	3.99343360005878	4.51374119985849	6.49542970000766
2	1	2	filler	25	None			NaN	0	7.5	7.50770149985328	7.99779940000735	9.99581289989874
3	1	3	target	4	Left	Left	LeftArrow	1	0.91130270017311	11	11.0077759998385	11.4974169998895	13.4934654999524
4	1	4	target	27	Left	Right	RightArrow	0	0.807690099813044	14.5	14.4933905999642	14.99645960005	16.9933747998439
5	1	5	target	6	Left	Left	LeftArrow	1	0.957420399878174	18	17.9933883999474	18.4992394000292	20.4934070999734
6	1	6	distractor	48	Right	Right	RightArrow	1	0.485457399860024	21.5	21.4934167000465	22.0005683000199	23.9934187000617
7	1	7	distractor	46	Right	Left	LeftArrow	0	1.14541150000878	25	24.9933912998531	25.4963374999352	27.4941090999637
8	1	8	target	47	Left	Right	RightArrow	0	0.87629699986428	28.5	28.4936428999063	29.0024800000247	30.9933998000342
9	1	9	distractor	26	Right	Left	LeftArrow	0	2.04936189996079	32	31.9933438999578	32.4975451999344	34.4948586998507
10	1	10	distractor	67	Right	Right	RightArrow	1	1.03660789993592	35.5	35.4934388999827	36.000945399981	37.9933853999246
11	1	11	distractor	68	Right			-1	0	39	38.9935729999561	39.496180200018	41.4958043999504
12	1	12	target	69	Left	Left	LeftArrow	1	0.750046100001782	42.5	42.5036267000251	42.9966215000022	44.9931154998485
13	2	1	filler	30	None			NaN	0	46	45.9933968000114	46.496110299835	48.4974398999475
14	2	2	filler	49	None			NaN	0	49.5	49.5082043998409	49.9966355999932	51.994413399836
15	2	3	distractor	71	Right	Left	LeftArrow	0	0.99852339993231	53	53.0045131999068	53.4962438000366	55.4935146998614
16	2	4	distractor	8	Right	Right	RightArrow	1	0.825011200038716	56.5	56.4934229999781	57.0007990999147	58.9934386999812
17	2	5	target	72	Left	Left	LeftArrow	1	1.20797590003349	60	59.9934131999034	60.5003325999714	62.4934199999552
18	2	6	target	7	Left	Right	RightArrow	0	0.467784099979326	63.5	63.4938552998938	63.9977269000374	65.9934090999886
19	2	7	distractor	50	Right	Right	RightArrow	1	1.06302269990556	67	66.9933344000019	67.4969693999738	69.4934330999386
20	2	8	target	9	Left	Left	LeftArrow	1	1.28350050002337	70.5	70.4934998999815	70.9995223998558	72.9934059998486
21	2	9	target	51	Left	Left	LeftArrow	1	0.898217999842018	74	73.9934872000013	74.4998202000279	76.4930443000048
22	2	10	distractor	29	Right	Right	RightArrow	1	0.955609299940988	77.5	77.4934036999475	77.9996229999233	79.9932941000443
23	2	11	distractor	70	Right	Right	RightArrow	1	0.953695999924093	81	80.9934608000331	81.5005282999482	83.4934516998474
24	2	12	target	28	Left	Left	LeftArrow	1	1.01048099994659	84.5	84.4934892000165	85.0012266999111	86.993464200059
25	3	1	filler	33	None			NaN	0	88	87.9933801000006	88.4968341998756	90.4939313000068
26	3	2	filler	54	None	Right	RightArrow	NaN	1.27435099985451	91.5	91.5041018999182	92.0004773000255	93.9935888999607
27	3	3	distractor	75	Right	Right	RightArrow	1	2.18855049996637	95	94.9933745998424	95.497136299964	97.495381299872
28	3	4	distractor	10	Right	Right	RightArrow	1	1.18441509990953	98.5	98.4934528998565	98.9974622000009	100.993031099904
29	3	5	target	73	Left	Left	LeftArrow	1	1.09813009994105	102	101.993439199869	102.501302900026	104.493418799946
30	3	6	target	12	Left	Left	LeftArrow	1	0.928035999881104	105.5	105.493454999989	105.998303700006	107.993377099978
31	3	7	target	74	Left	Left	LeftArrow	1	0.798337899846956	109	108.993428699905	109.496747100027	111.493402499938
32	3	8	distractor	53	Right	Right	RightArrow	1	0.811060999985784	112.5	112.493264500052	112.998260400025	114.993402600056
33	3	9	distractor	32	Right	Right	RightArrow	1	1.01885450002737	116	115.993520899909	116.499770799885	118.493473300012
34	3	10	target	52	Left	Left	LeftArrow	1	1.73121469980106	119.5	119.493448700057	119.997195200063	121.993396299891
35	3	11	target	31	Left	Left	LeftArrow	1	1.22271950007416	123	122.993485499872	123.496125799837	125.493405499961
36	3	12	distractor	11	Right	Right	RightArrow	1	0.613382099894807	126.5	126.493449599948	126.999395699939	128.99341139989
37	4	1	filler	56	None			NaN	0	130	129.993438699981	130.496422099881	132.49492369988
38	4	2	filler	55	None			NaN	0	133.5	133.508258899907	133.99842879991	135.997220200021
39	4	3	distractor	13	Right	Right	RightArrow	1	0.841053500073031	137	137.005643799901	137.502053099917	139.493722199928
40	4	4	distractor	14	Right	Right	RightArrow	1	1.29085700004362	140.5	140.493452399969	140.996754599968	142.993139100028
41	4	5	distractor	78	Right	Right	RightArrow	1	1.51723180012777	144	143.993396699894	144.501935399836	146.493404999841
42	4	6	target	15	Left	Left	LeftArrow	1	1.18496309989132	147.5	147.493404399836	148.002737300005	149.993390399963
43	4	7	target	76	Left	Right	RightArrow	0	2.105488399975	151	150.993836999871	151.497325300006	153.497768200003
44	4	8	distractor	36	Right	Right	RightArrow	1	0.903674799948931	154.5	154.493068599841	155.001577500021	156.993402400054
45	4	9	target	77	Left	Left	LeftArrow	1	1.42677869996987	158	157.993449999951	158.499762499938	160.49347919994
46	4	10	target	35	Left	Right	RightArrow	0	0.915558400098234	161.5	161.493444700027	162.000298199942	163.993484299863
47	4	11	distractor	57	Right	Right	RightArrow	1	1.17694299994037	165	164.993507599924	165.496335299918	167.49346300005
48	4	12	target	34	Left	Left	LeftArrow	1	1.59782809996977	168.5	168.493937199935	168.996633199975	170.993653599871
49	5	1	filler	58	None			NaN	0	172	171.993412100011	172.498553599929	174.495880799834
50	5	2	filler	18	None			NaN	0	175.5	175.510792499874	176.002423600061	177.996400699951
51	5	3	target	60	Left	Left	LeftArrow	1	0.732221600133926	179	179.005552500021	179.50017909985	181.493318599882
52	5	4	target	16	Left	Left	LeftArrow	1	0.948419600026682	182.5	182.493404199835	182.996508699842	184.993475100026
53	5	5	distractor	80	Right	Right	RightArrow	1	1.46548809995875	186	185.994424599921	186.49832169991	188.493139900034
54	5	6	target	17	Left	Right	RightArrow	0	1.31212290003896	189.5	189.493467199849	189.999265399994	191.993602599949
55	5	7	distractor	38	Right	Right	RightArrow	1	1.42877130000852	193	192.993435999844	193.499902399955	195.493383599911
56	5	8	distractor	81	Right	Left	LeftArrow	0	1.71524020005018	196.5	196.493477399927	196.999869599938	198.993473399896
57	5	9	target	37	Left			-1	0	200	199.993612499908	200.500389300054	202.497425499838
58	5	10	distractor	59	Right	Right	RightArrow	1	1.94637140003033	203.5	203.51037919987	203.999091899954	205.994071800029
59	5	11	target	39	Left			-1	0	207	206.993397800019	207.495998200029	209.497989899945
60	5	12	distractor	79	Right	Right	RightArrow	1	1.30698179989122	210.5	210.505928499857	211.000645200023	212.99391900003
61	6	1	filler	42	None			NaN	0	214	213.993598900037	214.496521499939	216.494422999909
62	6	2	filler	83	None			NaN	0	217.5	217.500763999997	217.997126099886	219.999372999882
63	6	3	target	40	Left	Left	LeftArrow	1	1.32832320011221	221	221.004006099887	221.497765099863	223.493737499928
64	6	4	target	84	Left	Left	LeftArrow	1	0.592079099966213	224.5	224.493622899987	224.999130999902	226.993363599991
65	6	5	distractor	61	Right	Right	RightArrow	1	0.913537199841812	228	227.993438099977	228.501257200027	230.49345379998
66	6	6	target	82	Left	Left	LeftArrow	1	1.68857469991781	231.5	231.493473999901	232.002062899992	233.993469299981
67	6	7	distractor	19	Right	Right	RightArrow	1	1.07073340006173	235	234.993391799973	235.497882399941	237.493857099907
68	6	8	distractor	41	Right	Right	RightArrow	1	1.48343500006013	238.5	238.493670399999	238.999856499955	240.994207599899
69	6	9	distractor	63	Right	Right	RightArrow	1	1.5739422000479	242	241.993776599877	242.50277809985	244.493417500053
70	6	10	distractor	21	Right	Right	RightArrow	1	1.6606693000067	245.5	245.493464499945	245.996903999941	247.993461899925
71	6	11	target	62	Left	Left	LeftArrow	1	0.850071499822661	249	248.99341399991	249.499909800012	251.493522400036
72	6	12	target	20	Left	Left	LeftArrow	1	0.777904300019145	252.5	252.493399600033	252.99875979987	254.993638199987
