trial_id	block	trial	type	stim_id	cresp	resp	resp_raw	acc	rt	trial_start_time_expt	trial_start_time	stim_onset_time	stim_offset_time
1	1	1	filler	41	None			NaN	0	4	3.99342000018805	4.50309060001746	6.49745050002821
2	1	2	filler	42	None			NaN	0	7.5	7.51955130021088	8.00522360019386	9.99526340002194
3	1	3	distractor	5	Right	Left	LeftArrow	0	1.35312370001338	11	11.0059109001886	11.5000102000777	13.4935171001125
4	1	4	target	43	Left	Left	LeftArrow	1	1.26277920021676	14.5	14.4934168001637	15.0045547999907	16.9934625001624
5	1	5	target	7	Left	Left	LeftArrow	1	2.12951650004834	18	17.9929958002176	18.5003601000644	20.4941102000885
6	1	6	distractor	6	Right			-1	0	21.5	21.4934625001624	21.9980886999983	23.9976072001737
7	1	7	target	9	Left	Left	LeftArrow	1	1.9062522999011	25	25.0044910002034	25.5045961001888	27.4932546000928
8	1	8	distractor	45	Right	Right	RightArrow	1	1.28382450016215	28.5	28.4934733000118	28.9976830000523	30.9934723000042
9	1	9	distractor	44	Right	Left	LeftArrow	0	1.52402910008095	32	31.9934089002199	32.4993469000328	34.4934679002035
10	1	10	distractor	10	Right			-1	0	35.5	35.4934647001792	36.0012053002138	37.9948489000089
11	1	11	target	46	Left	Right	RightArrow	0	1.94295119983144	39	39.0054659000598	39.4986319001764	41.4933825000189
12	1	12	target	8	Left	Left	LeftArrow	1	0.77393709984608	42.5	42.4932535002008	43.0034448001534	44.9930904000066
13	2	1	filler	51	None			NaN	0	46	45.9934691002127	46.5013898999896	48.4970292001963
14	2	2	filler	12	None			NaN	0	49.5	49.507049200125	50.0027412001509	51.9941264002118
15	2	3	distractor	14	Right	Right	RightArrow	1	1.3128395001404	53	53.007183900103	53.5038016000763	55.49346040003
16	2	4	distractor	47	Right	Right	RightArrow	1	1.22609640005976	56.5	56.4934374000877	56.9991431001108	58.9934948000591
17	2	5	distractor	49	Right			-1	0	60	59.9933849000372	60.50376410014	62.4942904000636
18	2	6	target	52	Left	Right	RightArrow	0	2.10090079996735	63.5	63.5068866000511	63.998677900061	65.9962742000353
19	2	7	target	50	Left	Left	LeftArrow	1	1.18298490019515	67	66.9933874001727	67.4988681999967	69.4933763002045
20	2	8	target	48	Left	Left	LeftArrow	1	1.57595700002275	70.5	70.4934693002142	71.0008052000776	72.9934079002123
21	2	9	distractor	16	Right	Right	RightArrow	1	1.30343930004165	74	73.9933878001757	74.4964626000728	76.4934706001077
22	2	10	distractor	13	Right	Left	LeftArrow	0	1.77407080004923	77.5	77.493390200194	77.9963492001407	79.9933817000128
23	2	11	target	11	Left	Left	LeftArrow	1	1.44689889997244	81	80.9934962000698	81.5022410000674	83.4941350000445
24	2	12	target	15	Left	Left	LeftArrow	1	0.900530999992043	84.5	84.4936554001179	84.9993750001304	86.9934163000435
25	3	1	filler	17	None			NaN	0	88	87.9930173000321	88.5001550000161	90.4967774001416
26	3	2	filler	57	None			NaN	0	91.5	91.5101117000449	92.0038528000005	93.9951989999972
27	3	3	distractor	53	Right	Right	RightArrow	1	1.53739479999058	95	95.0043402002193	95.4984344001859	97.4934771000408
28	3	4	distractor	20	Right	Left	LeftArrow	0	0.936025399947539	98.5	98.4934957001824	98.9988458000589	100.993398600025
29	3	5	target	58	Left	Right	RightArrow	0	1.17838759999722	102	101.993404800072	102.500066100154	104.493482900085
30	3	6	distractor	56	Right	Left	LeftArrow	0	1.00494339992292	105.5	105.493432200048	106.002638600068	107.993467100197
31	3	7	target	55	Left	Right	RightArrow	0	1.43219109997153	109	108.993341700174	109.501341200201	111.493474100018
32	3	8	distractor	21	Right	Right	RightArrow	1	1.77425580006093	112.5	112.493327800184	112.999374800129	114.993326000171
33	3	9	target	54	Left	Left	LeftArrow	1	1.15548499999568	116	115.993585900171	116.502816900145	118.49326740019
34	3	10	target	22	Left	Right	RightArrow	0	0.934789600083604	119.5	119.493938100059	120.000932099996	121.993417000165
35	3	11	distractor	19	Right	Left	LeftArrow	0	0.788213599938899	123	122.993473300012	123.500971800182	125.493458700133
36	3	12	target	18	Left	Left	LeftArrow	1	1.01434149988927	126.5	126.493622800102	127.003218100173	128.993478400167
37	4	1	filler	24	None			NaN	0	130	129.993481500074	130.498124500038	132.497049000114
38	4	2	filler	63	None			NaN	0	133.5	133.505284400191	134.001642200164	135.997413700214
39	4	3	target	26	Left	Left	LeftArrow	1	1.13279310008511	137	137.006769300206	137.498424299993	139.49348230008
40	4	4	distractor	23	Right	Right	RightArrow	1	2.03604899998754	140.5	140.493472700007	140.997481900034	142.995016100118
41	4	5	distractor	59	Right	Right	RightArrow	1	1.76974829984829	144	143.993434700184	144.498858800158	146.49348540022
42	4	6	target	27	Left	Left	LeftArrow	1	1.6584646999836	147.5	147.493397600017	147.99737610016	149.993650200078
43	4	7	distractor	25	Right	Right	RightArrow	1	1.51689340011217	151	150.993560400093	151.500139300013	153.493572500069
44	4	8	target	28	Left	Left	LeftArrow	1	1.88508700020611	154.5	154.493413700024	155.001987600001	156.993321300019
45	4	9	distractor	64	Right			-1	0	158	157.993407600094	158.498321400024	160.500052300049
46	4	10	distractor	62	Right	Right	RightArrow	1	1.1714709000662	161.5	161.50996000017	162.002144600032	163.993517500116
47	4	11	target	60	Left	Left	LeftArrow	1	1.30969080002978	165	164.993378000101	165.502150600078	167.493404700188
48	4	12	target	61	Left	Left	LeftArrow	1	1.53220109990798	168.5	168.493446000153	169.000239600195	170.993378400104
49	5	1	filler	32	None			NaN	0	172	171.993475000141	172.501044400036	174.494270200143
50	5	2	filler	34	None			NaN	0	175.5	175.510292800143	176.002070600167	177.997212500079
51	5	3	target	31	Left	Left	LeftArrow	1	1.14515160000883	179	179.005857200129	179.499298100127	181.49348960002
52	5	4	distractor	65	Right	Right	RightArrow	1	1.43378249998204	182.5	182.493467700202	183.000005300157	184.993023200193
53	5	5	distractor	68	Right	Left	LeftArrow	0	1.60313339997083	186	185.993454900105	186.497984100133	188.493383700028
54	5	6	distractor	30	Right	Right	RightArrow	1	1.45071110012941	189.5	189.493472800124	189.99976720009	191.993407200091
55	5	7	target	70	Left	Left	LeftArrow	1	1.02485279995017	193	192.993419500068	193.500751800137	195.493434500182
56	5	8	distractor	67	Right	Right	RightArrow	1	1.0444453000091	196.5	196.493441099999	196.998834200203	198.993482900085
57	5	9	target	66	Left	Left	LeftArrow	1	0.895533400122076	200	199.993391100084	200.500986800063	202.493465000065
58	5	10	distractor	29	Right	Right	RightArrow	1	1.27268219995312	203.5	203.49308870011	204.000954200048	205.993460600032
59	5	11	target	69	Left	Left	LeftArrow	1	1.01599109987728	207	206.993069800083	207.502716200193	209.493363700109
60	5	12	target	33	Left			-1	0	210.5	210.493503500009	211.000091100112	212.99382040021
61	6	1	filler	38	None			NaN	0	214	214.004079800099	214.499556400115	216.494926600019
62	6	2	filler	37	None			NaN	0	217.5	217.506652900018	218.000380200101	219.995103600202
63	6	3	distractor	75	Right	Right	RightArrow	1	1.45059100002982	221	221.009161400143	221.503031000029	223.493522800039
64	6	4	target	36	Left	Left	LeftArrow	1	1.74296840000898	224.5	224.493569600163	224.998491800157	226.993696900085
65	6	5	target	76	Left	Left	LeftArrow	1	1.31397160002962	228	227.993437900208	228.498023800086	230.493431300158
66	6	6	distractor	71	Right	Left	LeftArrow	0	1.06875119986944	231.5	231.493433100171	231.997764400207	233.993441800121
67	6	7	target	74	Left	Left	LeftArrow	1	1.15046070003882	235	234.993352000136	235.497111100005	237.493383200141
68	6	8	target	73	Left	Left	LeftArrow	1	0.979141800198704	238.5	238.493026300101	238.997553399997	240.993380600121
69	6	9	distractor	39	Right	Right	RightArrow	1	1.07199959992431	242	241.993385700043	242.499430500204	244.493478600169
70	6	10	distractor	40	Right	Right	RightArrow	1	2.15177510003559	245.5	245.493381400127	246.002373500029	247.998822699999
71	6	11	target	35	Left	Left	LeftArrow	1	1.07392059988342	249	248.992878000019	249.499627600191	251.492909400025
72	6	12	distractor	72	Right	Right	RightArrow	1	0.729821400018409	252.5	252.492917000083	252.995391500182	254.993403400062
