trial_id	block	trial	type	stim_id	cresp	resp	resp_raw	acc	rt	trial_start_time_expt	trial_start_time	stim_onset_time	stim_offset_time
1	1	1	filler	5	None			NaN	0	4	3.99336050008424	4.52083080005832	6.49475860001985
2	1	2	filler	25	None			NaN	0	7.5	7.5050087000709	8.00475740002003	9.99552750005387
3	1	3	target	4	Left	Right	RightArrow	0	1.54047520004679	11	11.003452999983	11.4977729000384	13.493489400018
4	1	4	target	27	Left	Left	LeftArrow	1	2.34583199990448	14.5	14.4934083999833	14.9976255000802	16.9956898000091
5	1	5	target	6	Left	Right	RightArrow	0	1.63956849998794	18	17.9932481000433	18.4963487000205	20.4934223000892
6	1	6	distractor	48	Right	Left	LeftArrow	0	1.42754529998638	21.5	21.4933435000712	21.9969266999979	23.9932778000366
7	1	7	distractor	46	Right	Right	RightArrow	1	1.29384910000954	25	24.9933994000312	25.4986086999997	27.4934696999844
8	1	8	target	47	Left	Left	LeftArrow	1	1.04568480001763	28.5	28.4930104999803	29.0014695000136	30.9934283000184
9	1	9	distractor	26	Right	Right	RightArrow	1	0.746014500036836	32	31.9934807000682	32.4985207000282	34.4934641000582
10	1	10	distractor	67	Right	Right	RightArrow	1	1.97557729994878	35.5	35.4934988000896	36.0009685000405	37.9933526000241
11	1	11	distractor	68	Right	Right	RightArrow	1	1.33479090000037	39	38.9933847000357	39.5010925000533	41.4933996000327
12	1	12	target	69	Left	Right	RightArrow	0	2.27838589996099	42.5	42.4934760000324	42.9992531000171	44.9980413999874
13	2	1	filler	30	None	Left	LeftArrow	NaN	1.93902789999265	46	45.9934444000246	46.5004059000639	48.4934686999768
14	2	2	filler	49	None			NaN	0	49.5	49.4934700999875	49.9990125000477	51.9993140000151
15	2	3	distractor	71	Right			-1	0	53	53.0049315000651	53.4967605000129	55.4992048999993
16	2	4	distractor	8	Right	Left	LeftArrow	0	1.36292610003147	56.5	56.5030843000859	56.9971577000106	58.9933459999738
17	2	5	target	72	Left	Left	LeftArrow	1	2.01428150001448	60	59.9933991000289	60.499276000075	62.4936656000791
18	2	6	target	7	Left	Left	LeftArrow	1	1.17831620003562	63.5	63.4934594000224	63.9961957000196	65.9933719000546
19	2	7	distractor	50	Right	Right	RightArrow	1	0.465366299962625	67	66.9934562999988	67.4979753000662	69.4934592000209
20	2	8	target	9	Left	Left	LeftArrow	1	1.04048450000118	70.5	70.4934481000528	70.9994344000006	72.9932647000533
21	2	9	target	51	Left	Right	RightArrow	0	0.58499570004642	74	73.9933984000236	74.4973603000399	76.4930521000642
22	2	10	distractor	29	Right	Right	RightArrow	1	1.07521219993941	77.5	77.4933923999779	77.9993075000821	79.9934567000018
23	2	11	distractor	70	Right	Left	LeftArrow	0	0.658005999983288	81	80.9935928999912	81.4988115000306	83.4934451000299
24	2	12	target	28	Left	Right	RightArrow	0	1.47266339999624	84.5	84.4932106999913	84.9970901000779	86.9934229999781
25	3	1	filler	33	None	Left	LeftArrow	NaN	0.714452599990182	88	87.9933055000147	88.5009169999976	90.4934528000886
26	3	2	filler	54	None			NaN	0	91.5	91.4933689000318	91.9998810000252	93.9980373000726
27	3	3	distractor	75	Right	Right	RightArrow	1	1.21198849997018	95	95.0076494000386	95.4973199000815	97.493470299989
28	3	4	distractor	10	Right	Left	LeftArrow	0	1.66457190003712	98.5	98.493391700089	98.9962710000109	100.993381500011
29	3	5	target	73	Left	Right	RightArrow	0	1.53604819998145	102	101.993411300005	102.497259100084	104.493469299981
30	3	6	target	12	Left	Left	LeftArrow	1	0.838678100029938	105.5	105.493463300052	105.998092400027	107.993376799976
31	3	7	target	74	Left	Right	RightArrow	0	0.488296200055629	109	108.993393199984	109.496633799979	111.493468499975
32	3	8	distractor	53	Right	Right	RightArrow	1	1.62421389995143	112.5	112.493352900026	113.002623000066	114.99348830001
33	3	9	distractor	32	Right	Left	LeftArrow	0	0.70466899999883	116	115.993569500046	116.497587600024	118.493453099974
34	3	10	target	52	Left	Left	LeftArrow	1	0.522780400002375	119.5	119.493580300012	120.001198700047	121.99380549998
35	3	11	target	31	Left	Right	RightArrow	0	0.650969799957238	123	122.993419400067	123.495832300046	125.493136900011
36	3	12	distractor	11	Right	Right	RightArrow	1	0.372602400020696	126.5	126.493458800018	126.997715400066	128.993053400074
37	4	1	filler	56	None			NaN	0	130	129.993464800064	130.498185000033	132.494273900054
38	4	2	filler	55	None			NaN	0	133.5	133.507217200007	133.996596600045	135.99816399999
39	4	3	distractor	13	Right	Right	RightArrow	1	1.50417530001141	137	137.004698600038	137.498898399994	139.493430000031
40	4	4	distractor	14	Right	Right	RightArrow	1	2.22266740002669	140.5	140.493469599984	140.996306000045	142.995895000058
41	4	5	distractor	78	Right	Right	RightArrow	1	1.35744370007887	144	143.993403700064	144.495795499999	146.493336400017
42	4	6	target	15	Left			-1	0	147.5	147.493511200068	147.999118000036	149.999484700034
43	4	7	target	76	Left	Left	LeftArrow	1	0.479125100071542	151	151.0038527	151.500565199996	153.493508000043
44	4	8	distractor	36	Right	Right	RightArrow	1	0.343417500029318	154.5	154.493418800062	154.999019899988	156.993847100064
45	4	9	target	77	Left	Right	RightArrow	0	0.27420520002488	158	157.99328960001	158.497423900058	160.493352200021
46	4	10	target	35	Left	Left	LeftArrow	1	0.360198999987915	161.5	161.493426700006	161.997186799999	163.993348199991
47	4	11	distractor	57	Right	Right	RightArrow	1	0.586313899955712	165	164.993405300076	165.500958600082	167.493451000075
48	4	12	target	34	Left	Right	RightArrow	0	0.834666499984451	168.5	168.493396700011	168.996631100075	170.993389400071
49	5	1	filler	58	None			NaN	0	172	171.993425499997	172.496025800006	174.497457000078
50	5	2	filler	18	None			NaN	0	175.5	175.508096500067	175.998499399982	177.995978999999
51	5	3	target	60	Left	Left	LeftArrow	1	0.677519600023516	179	179.00054430007	179.496893399977	181.493445500033
52	5	4	target	16	Left	Left	LeftArrow	1	1.56412110000383	182.5	182.493452000082	182.998785900068	184.993453899981
53	5	5	distractor	80	Right	Right	RightArrow	1	1.25697590003256	186	185.993401200045	186.497529600048	188.493482100079
54	5	6	target	17	Left	Right	RightArrow	0	1.09441580006387	189.5	189.493402600056	189.996729900013	191.994056300027
55	5	7	distractor	38	Right	Right	RightArrow	1	1.98930210003164	193	192.993671300006	193.49703790003	195.493083900074
56	5	8	distractor	81	Right	Right	RightArrow	1	1.80738869996276	196.5	196.493479300058	196.997592000058	198.993423999986
57	5	9	target	37	Left	Right	RightArrow	0	1.78330600005575	200	199.993423099979	200.499996799976	202.493468599976
58	5	10	distractor	59	Right	Right	RightArrow	1	1.07786640000995	203.5	203.493308200035	204.001476000063	205.993458900019
59	5	11	target	39	Left			-1	0	207	206.99340050004	207.500875300029	209.494146900019
60	5	12	distractor	79	Right	Right	RightArrow	1	1.16672600002494	210.5	210.499628600082	210.997650000034	212.993388800067
61	6	1	filler	42	None			NaN	0	214	213.993414100027	214.500725600054	216.493791199988
62	6	2	filler	83	None			NaN	0	217.5	217.503893300076	217.999281199998	219.999534500064
63	6	3	target	40	Left	Left	LeftArrow	1	2.03460889996495	221	221.004919899977	221.499858500087	223.49594110006
64	6	4	target	84	Left	Right	RightArrow	0	0.73199250001926	224.5	224.493492400041	224.996961000026	226.993375000078
65	6	5	distractor	61	Right	Right	RightArrow	1	1.78509849996772	228	227.993888900033	228.498497300083	230.493396200007
66	6	6	target	82	Left	Left	LeftArrow	1	1.07602959999349	231.5	231.493423599983	231.999869800056	233.993432000047
67	6	7	distractor	19	Right	Left	LeftArrow	0	1.6876868000254	235	234.993490600027	235.499576900038	237.493467200082
68	6	8	distractor	41	Right	Right	RightArrow	1	0.891856799949892	238.5	238.493462400045	238.996539600077	240.993064100039
69	6	9	distractor	63	Right	Left	LeftArrow	0	0.722354999976233	242	241.993059700006	242.497718400089	244.493378999992
70	6	10	distractor	21	Right	Right	RightArrow	1	0.58995309995953	245.5	245.493380900007	245.996564200032	247.993468799978
71	6	11	target	62	Left	Left	LeftArrow	1	0.875623399973847	249	248.993412300013	249.497883600066	251.493440899998
72	6	12	target	20	Left	Right	RightArrow	0	0.661970100016333	252.5	252.493378199986	253.000420100056	254.993373000063
