trial_id	block	trial	type	stim_id	cresp	resp	resp_raw	acc	rt	trial_start_time_expt	trial_start_time	stim_onset_time	stim_offset_time
1	1	1	filler	5	None			NaN	0	4	3.99350229999982	4.51290539998445	6.49426119998679
2	1	2	filler	25	None			NaN	0	7.5	7.51606259998516	8.00258279999252	10.000186099991
3	1	3	target	4	Left	Left	LeftArrow	1	1.52623220000532	11	11.0078108999878	11.4965885999845	13.4934661999869
4	1	4	target	27	Left	Left	LeftArrow	1	1.68014529999346	14.5	14.4934552999912	14.9977224000031	16.9934550999897
5	1	5	target	6	Left	Right	RightArrow	0	1.49931199999992	18	17.9934803000069	18.5013311000075	20.4935293000017
6	1	6	distractor	48	Right	Left	LeftArrow	0	1.23122769998736	21.5	21.4934665999899	21.9975532999961	23.9934762000048
7	1	7	distractor	46	Right	Right	RightArrow	1	2.41851359998691	25	24.9941562000022	25.4987349000003	27.4972565000062
8	1	8	target	47	Left	Left	LeftArrow	1	1.19655379999313	28.5	28.4934948000009	28.9964220999973	30.9934698999859
9	1	9	distractor	26	Right	Right	RightArrow	1	1.6077144999872	32	31.9933551999857	32.4966325999994	34.4935119999864
10	1	10	distractor	67	Right	Left	LeftArrow	0	1.17098890000489	35.5	35.4934863999952	35.9989158999815	37.9934653999808
11	1	11	distractor	68	Right	Left	LeftArrow	0	0.669099399994593	39	38.9931285000057	39.5013455000008	41.4933899999887
12	1	12	target	69	Left	Right	RightArrow	0	0.968355899996823	42.5	42.4931855000032	42.9996586999914	44.9935134999978
13	2	1	filler	30	None			NaN	0	46	45.9935148000077	46.4971645000041	48.4945667999855
14	2	2	filler	49	None			NaN	0	49.5	49.5042703000072	50.0008506999875	51.9983140999975
15	2	3	distractor	71	Right			-1	0	53	53.0078860000067	53.497644499992	55.4980128000025
16	2	4	distractor	8	Right	Left	LeftArrow	0	0.811733000009554	56.5	56.5071596000053	56.9962290999829	58.9934753999987
17	2	5	target	72	Left	Left	LeftArrow	1	0.995338099979563	60	59.9934431999864	60.4961629000027	62.4932762999961
18	2	6	target	7	Left	Right	RightArrow	0	1.43465619999915	63.5	63.493470299989	63.9994834999961	65.9934674999968
19	2	7	distractor	50	Right	Left	LeftArrow	0	1.5415292000107	67	66.9934257999994	67.4963065999909	69.4934778999886
20	2	8	target	9	Left	Left	LeftArrow	1	1.67609129997436	70.5	70.4935222000058	71.0007310000074	72.9934569000034
21	2	9	target	51	Left	Left	LeftArrow	1	1.30511809999007	74	73.9934625999886	74.4969871999929	76.4934680000006
22	2	10	distractor	29	Right	Right	RightArrow	1	1.76259719999507	77.5	77.4933686000004	77.9986847999971	79.9934544999851
23	2	11	distractor	70	Right	Left	LeftArrow	0	1.03633130001253	81	80.9934888999851	81.4983807999815	83.4934885999828
24	2	12	target	28	Left	Right	RightArrow	0	1.30274899999495	84.5	84.493472800008	84.9967326000042	86.9934555999935
25	3	1	filler	33	None			NaN	0	88	87.9933821999875	88.4989424000087	90.4989311999816
26	3	2	filler	54	None			NaN	0	91.5	91.5033066000033	92.000481199997	93.9977755
27	3	3	distractor	75	Right	Left	LeftArrow	0	1.28145450001466	95	95.0083952999848	95.4965928999882	97.4934686000051
28	3	4	distractor	10	Right			-1	0	98.5	98.4934505999845	98.9989921999804	100.995243799989
29	3	5	target	73	Left	Right	RightArrow	0	1.38478409999516	102	102.009560100007	102.495960800006	104.493473799987
30	3	6	target	12	Left	Left	LeftArrow	1	1.71100469998783	105.5	105.493415100005	105.996792899998	107.993534699985
31	3	7	target	74	Left	Left	LeftArrow	1	1.02947529999074	109	108.993528299994	109.499022500007	111.493306999997
32	3	8	distractor	53	Right	Left	LeftArrow	0	1.07870780001394	112.5	112.493174999981	112.998373299983	114.9931507
33	3	9	distractor	32	Right	Right	RightArrow	1	1.46742849997827	116	115.993481199985	116.498459900002	118.493449600006
34	3	10	target	52	Left	Right	RightArrow	0	2.08789870000328	119.5	119.493515599985	119.996657499985	121.998686100007
35	3	11	target	31	Left	Left	LeftArrow	1	1.2251738999912	123	122.993442799983	123.499809000001	125.493476300006
36	3	12	distractor	11	Right	Left	LeftArrow	0	1.15559400001075	126.5	126.493497299991	126.99650899999	128.993539499992
37	4	1	filler	56	None			NaN	0	130	129.993536900001	130.499749299983	132.499647599994
38	4	2	filler	55	None			NaN	0	133.5	133.505113199994	134.000854299986	135.994392099994
39	4	3	distractor	13	Right	Left	LeftArrow	0	1.83356359999743	137	137.008337799984	137.496632299997	139.493466099986
40	4	4	distractor	14	Right			-1	0	140.5	140.493337699998	140.998814999999	142.994162599993
41	4	5	distractor	78	Right	Left	LeftArrow	0	1.51986509998096	144	144.009008199995	144.496270100004	146.493367599993
42	4	6	target	15	Left	Left	LeftArrow	1	2.08707199999481	147.5	147.493461999984	148.000193699991	149.995718799997
43	4	7	target	76	Left	Left	LeftArrow	1	2.16302700000233	151	150.993474699993	151.499527399981	153.495944299997
44	4	8	distractor	36	Right	Left	LeftArrow	0	1.13376430000062	154.5	154.493494099996	154.99675749999	156.993409899995
45	4	9	target	77	Left	Left	LeftArrow	1	1.34368069999618	158	157.993395800004	158.500484199991	160.493457100005
46	4	10	target	35	Left	Right	RightArrow	0	1.24698899997748	161.5	161.493484799983	162.000092400005	163.993357400002
47	4	11	distractor	57	Right	Right	RightArrow	1	1.36969510000199	165	164.993553699984	165.497561700002	167.494006399997
48	4	12	target	34	Left	Left	LeftArrow	1	2.03664550001849	168.5	168.493550099985	168.996179299982	170.994984699995
49	5	1	filler	58	None			NaN	0	172	171.99343219999	172.498158100003	174.498781300004
50	5	2	filler	18	None			NaN	0	175.5	175.510012399987	175.99737149998	177.997344100004
51	5	3	target	60	Left	Right	RightArrow	0	1.82216710000648	179	179.007704599993	179.499620599992	181.493454899988
52	5	4	target	16	Left	Right	RightArrow	0	1.24540990000241	182.5	182.4934794	182.999944299983	184.993526899983
53	5	5	distractor	80	Right			-1	0	186	185.9934908	186.499646899989	188.499972099991
54	5	6	target	17	Left	Right	RightArrow	0	1.92684830000508	189.5	189.509535499994	189.997438799997	191.993414600001
55	5	7	distractor	38	Right	Left	LeftArrow	0	1.35056680001435	193	192.993441800005	193.496786999982	195.493456700002
56	5	8	distractor	81	Right	Left	LeftArrow	0	1.33989030000521	196.5	196.493464900006	196.998053099989	198.993524099991
57	5	9	target	37	Left	Right	RightArrow	0	1.58575089997612	200	199.993563299999	200.499561000004	202.493473699986
58	5	10	distractor	59	Right	Left	LeftArrow	0	1.863077099988	203.5	203.493491800007	204.001237999997	205.993417799997
59	5	11	target	39	Left	Right	RightArrow	0	2.09206059999997	207	206.993396000005	207.500000300002	209.496225399984
60	5	12	distractor	79	Right	Left	LeftArrow	0	1.59621190000325	210.5	210.493474799994	210.998559700005	212.993366399984
61	6	1	filler	42	None			NaN	0	214	213.993474799994	214.498354899988	216.497047099983
62	6	2	filler	83	None			NaN	0	217.5	217.508342399989	218.000061600003	219.994216199993
63	6	3	target	40	Left	Left	LeftArrow	1	2.46916780000902	221	221.00504009999	221.496890199982	223.495026399993
64	6	4	target	84	Left	Left	LeftArrow	1	1.33116609998979	224.5	224.493514900008	224.9963193	226.993484300008
65	6	5	distractor	61	Right	Left	LeftArrow	0	0.976689300005091	228	227.99340409998	228.496574899997	230.493476700009
66	6	6	target	82	Left	Right	RightArrow	0	1.6504697999917	231.5	231.493481299985	231.997204999992	233.993537700007
67	6	7	distractor	19	Right			-1	0	235	234.993466899992	235.502074699994	237.496574899997
68	6	8	distractor	41	Right	Right	RightArrow	1	1.95325799999409	238.5	238.505628999992	238.997809799999	240.993458199984
69	6	9	distractor	63	Right	Left	LeftArrow	0	1.20418120000977	242	241.993342900008	242.496465999982	244.493488799984
70	6	10	distractor	21	Right	Right	RightArrow	1	1.05214159999741	245.5	245.493427699985	245.998822699999	247.99349719999
71	6	11	target	62	Left	Left	LeftArrow	1	1.24180489999708	249	248.993486299994	249.496240999986	251.49345519999
72	6	12	target	20	Left	Right	RightArrow	0	1.39400979998754	252.5	252.493486599997	252.996429399995	254.993511100009
