trial_id	block	trial	type	stim_id	cresp	resp	resp_raw	acc	rt	trial_start_time_expt	trial_start_time	stim_onset_time	stim_offset_time
1	1	1	filler	48	None			NaN	0	4	3.99341570000979	4.50565650001226	6.49912140000379
2	1	2	filler	68	None			NaN	0	7.5	7.510111399999	8.0041074000037	9.99558350000007
3	1	3	target	46	Left	Left	LeftArrow	1	0.975082399992971	11	11.0123619000078	11.5051900000108	13.4934723000042
4	1	4	distractor	47	Right	Right	RightArrow	1	1.63298520000535	14.5	14.4934566000011	15.0033044000011	16.993492300011
5	1	5	distractor	26	Right	Right	RightArrow	1	2.23337410000386	18	17.9935007000022	18.4989147000015	20.4941668000101
6	1	6	distractor	27	Right	Right	RightArrow	1	1.52914400000009	21.5	21.4934649000061	21.9996462000126	23.9934390000126
7	1	7	distractor	5	Right	Left	LeftArrow	0	1.64700670000457	25	24.993450000009	25.4996009000024	27.4935197000013
8	1	8	target	25	Left	Left	LeftArrow	1	0.948034899993218	28.5	28.4934688000067	29.0030459000118	30.9931562000129
9	1	9	target	4	Left	Left	LeftArrow	1	1.46576060001098	32	31.9940422000072	32.5010608000011	34.4934390000126
10	1	10	distractor	69	Right	Right	RightArrow	1	1.20098439999856	35.5	35.4934704000043	36.0047426000092	37.9934506999998
11	1	11	target	6	Left	Left	LeftArrow	1	1.03352190001169	39	38.9935011000052	39.4997879000002	41.4934317000007
12	1	12	target	67	Left	Right	RightArrow	0	1.23080479999771	42.5	42.4933846000058	43.0012439000129	44.9934441000078
13	2	1	filler	9	None			NaN	0	46	45.9933459000022	46.4997681000095	48.498075200012
14	2	2	filler	30	None			NaN	0	49.5	49.5063249000086	49.9991996000026	51.9939688000013
15	2	3	target	7	Left	Left	LeftArrow	1	0.695623999999953	53	53.0080531000131	53.5023449	55.4935304000101
16	2	4	target	28	Left	Right	RightArrow	0	0.915917999998783	56.5	56.4934492000029	57.0014090000041	58.9934397000034
17	2	5	distractor	71	Right	Right	RightArrow	1	1.94398199999705	60	59.99353230001	60.5016116000043	62.493378500003
18	2	6	target	29	Left	Left	LeftArrow	1	2.20015650001005	63.5	63.4933649000013	64.0006555	65.9949001000059
19	2	7	distractor	8	Right	Left	LeftArrow	0	2.00270589999855	67	66.9934960000101	67.4985725000006	69.4941152000101
20	2	8	distractor	72	Right	Right	RightArrow	1	2.06133589999808	70.5	70.4934765000071	70.9989570000034	72.9950317000039
21	2	9	distractor	50	Right	Right	RightArrow	1	1.54143650000333	74	73.9934537000081	74.5018467000045	76.4934574000072
22	2	10	target	70	Left	Left	LeftArrow	1	1.11140530000557	77.5	77.4934006000112	78.0008753000002	79.9934514000051
23	2	11	target	49	Left	Right	RightArrow	0	1.54715260000376	81	80.9935106000048	81.5013018000027	83.4934447000123
24	2	12	distractor	51	Right	Right	RightArrow	1	1.92837850000069	84.5	84.4934095000062	85.0026654000103	86.9935060999996
25	3	1	filler	31	None			NaN	0	88	87.9933703999995	88.5002718000032	90.4989118000085
26	3	2	filler	10	None			NaN	0	91.5	91.5094359000068	91.9993228000094	93.9941907000029
27	3	3	distractor	53	Right	Right	RightArrow	1	0.98091569999815	95	95.0070585000067	95.5043016000127	97.4934287000069
28	3	4	target	12	Left	Left	LeftArrow	1	1.45324069999333	98.5	98.4936140000063	99.0023058000079	100.993468700006
29	3	5	distractor	74	Right	Right	RightArrow	1	0.74426510000194	102	101.993424700006	102.50244750001	104.493434700009
30	3	6	target	11	Left	Left	LeftArrow	1	1.29597599999397	105.5	105.493472000002	106.004986900007	107.9934259
31	3	7	target	75	Left	Left	LeftArrow	1	1.22658329999831	109	108.993470900008	109.501131200013	111.493532200009
32	3	8	distractor	54	Right	Right	RightArrow	1	0.835008399997605	112.5	112.493482700011	113.001417800013	114.993453600007
33	3	9	distractor	32	Right	Left	LeftArrow	0	0.85164850000001	116	115.993361700006	116.504570400008	118.493376900005
34	3	10	target	52	Left	Left	LeftArrow	1	1.34467289999884	119.5	119.4934393	119.998161900003	121.9935062
35	3	11	target	33	Left	Right	RightArrow	0	1.70523999999568	123	122.9930991	123.50272650001	125.493350100005
36	3	12	distractor	73	Right	Left	LeftArrow	0	1.96218550000049	126.5	126.4933839	127.001292200002	128.993474500006
37	4	1	filler	13	None			NaN	0	130	129.99348260001	130.503222500003	132.497057800007
38	4	2	filler	14	None			NaN	0	133.5	133.505603800004	134.000721600009	135.999160100007
39	4	3	target	15	Left	Left	LeftArrow	1	1.26361419999739	137	137.005897300012	137.500859300009	139.4937833
40	4	4	distractor	56	Right	Right	RightArrow	1	0.881255700005568	140.5	140.493463600011	141.003050300002	142.993410800002
41	4	5	distractor	76	Right			-1	0	144	143.993454300013	144.505076600006	146.495438700003
42	4	6	target	55	Left	Right	RightArrow	0	1.33305950000067	147.5	147.508587400007	148.00242080001	149.9934698
43	4	7	target	78	Left	Right	RightArrow	0	0.967889599996852	151	150.993467700013	151.50064720001	153.493467000008
44	4	8	distractor	36	Right	Right	RightArrow	1	1.65485369999078	154.5	154.493487600004	155.00106960001	156.993465899999
45	4	9	target	77	Left	Left	LeftArrow	1	1.04669810000632	158	157.993412800002	158.504872100006	160.493448600013
46	4	10	target	35	Left	Right	RightArrow	0	1.88192230000277	161.5	161.493250600004	162.003666000004	163.993451600007
47	4	11	distractor	34	Right	Left	LeftArrow	0	1.51389180000115	165	164.993500700002	165.500847100004	167.493475800002
48	4	12	distractor	57	Right	Right	RightArrow	1	2.01213689999713	168.5	168.493466200001	169.000812800004	170.9989393
49	5	1	filler	58	None			NaN	0	172	171.993520000004	172.504524200005	174.495569600011
50	5	2	filler	81	None			NaN	0	175.5	175.510743999999	176.003768200011	177.994148199999
51	5	3	target	60	Left	Left	LeftArrow	1	0.860946200002218	179	179.010917800013	179.501535600008	181.493421100007
52	5	4	target	80	Left	Right	RightArrow	0	1.09095869999146	182.5	182.493429200011	182.998082800012	184.993395400001
53	5	5	distractor	18	Right	Right	RightArrow	1	1.5247939999972	186	185.993372900004	186.50063960001	188.493476300006
54	5	6	distractor	16	Right	Left	LeftArrow	0	1.75557459999982	189.5	189.49346920001	190.005302000005	191.993442600011
55	5	7	distractor	39	Right	Left	LeftArrow	0	1.83888959999604	193	192.993513900001	193.504049300012	195.4933208
56	5	8	target	17	Left	Left	LeftArrow	1	1.69522219999635	196.5	196.493475300013	197.005161300011	198.993453600007
57	5	9	target	38	Left	Left	LeftArrow	1	2.05819100000372	200	199.993374400001	200.5045675	202.497533300004
58	5	10	distractor	59	Right	Right	RightArrow	1	2.20410489999631	203.5	203.493468700006	204.005243500011	205.997135900005
59	5	11	target	37	Left	Left	LeftArrow	1	1.34985450000386	207	206.993514800008	207.502286000003	209.493376600003
60	5	12	distractor	79	Right	Right	RightArrow	1	1.28317099998822	210.5	210.493704500012	211.003426400013	212.993317
61	6	1	filler	21	None			NaN	0	214	213.99345580001	214.5032679	216.499308099999
62	6	2	filler	40	None			NaN	0	217.5	217.504506700003	218.000967100001	219.994971000007
63	6	3	target	20	Left	Left	LeftArrow	1	0.639758599994821	221	221.008152500013	221.49979300001	223.493484600011
64	6	4	distractor	62	Right	Right	RightArrow	1	0.787007699997048	224.5	224.4938864	225.001161000007	226.993465100008
65	6	5	distractor	82	Right	Right	RightArrow	1	1.40936370000418	228	227.993470400004	228.499375300002	230.493483400001
66	6	6	target	61	Left	Left	LeftArrow	1	1.56635510000342	231.5	231.493446000008	232.001095700005	233.993449100002
67	6	7	target	83	Left	Left	LeftArrow	1	1.88425289999577	235	234.993396900012	235.503220000013	237.493449700007
68	6	8	target	63	Left	Right	RightArrow	0	1.02834150000126	238.5	238.493505100007	239.004708500011	240.993498200012
69	6	9	target	84	Left	Left	LeftArrow	1	1.93129870000121	242	241.993512400004	242.503601000004	244.493481000012
70	6	10	distractor	41	Right	Right	RightArrow	1	1.00150240000221	245.5	245.493936600004	246.004964200009	247.993412399999
71	6	11	distractor	42	Right	Left	LeftArrow	0	1.62052369999583	249	248.993472700007	249.499397000007	251.493410700001
72	6	12	distractor	19	Right	Right	RightArrow	1	1.34165940000094	252.5	252.49333540001	253.001155400008	254.9934507
