trial_id	block	trial	type	stim_id	cresp	resp	resp_raw	acc	rt	trial_start_time_expt	trial_start_time	stim_onset_time	stim_offset_time
1	1	1	filler	5	None			NaN	0	4	3.99341250001453	4.51355920010246	6.49585569999181
2	1	2	filler	25	None			NaN	0	7.5	7.50703199999407	7.99854549998417	9.99622880015522
3	1	3	target	4	Left	Right	RightArrow	0	1.47667069989257	11	11.0051508999895	11.4962540001143	13.4934694999829
4	1	4	target	27	Left	Right	RightArrow	0	1.89754670020193	14.5	14.4933895999566	15.0012499999721	16.99344820017
5	1	5	target	6	Left	Left	LeftArrow	1	2.4015990998596	18	17.9935095000546	18.5022343001328	20.4978795000352
6	1	6	distractor	48	Right	Left	LeftArrow	0	0.695430000079796	21.5	21.4933915999718	22.0007323999889	23.9934441000223
7	1	7	distractor	46	Right	Right	RightArrow	1	0.452789700124413	25	24.9934614000376	25.4980436000042	27.493407699978
8	1	8	target	47	Left	Left	LeftArrow	1	0.221541700186208	28.5	28.4934070000891	29.0007905999664	30.9935508000199
9	1	9	distractor	26	Right	Left	LeftArrow	0	1.78821499994956	32	31.9934416001197	32.4934028000571	34.4934265001211
10	1	10	distractor	67	Right			-1	0	35.5	35.4934058999643	36.0001109000295	37.994120300049
11	1	11	distractor	68	Right	Right	RightArrow	1	2.03512989985757	39	39.0077542001382	39.4990098001435	41.4938924000598
12	1	12	target	69	Left	Left	LeftArrow	1	1.36016479996033	42.5	42.4934891001321	43.0022422000766	44.9934570000041
13	2	1	filler	30	None	Left	LeftArrow	NaN	0.887019800022244	46	45.9930602000095	46.5025794000831	48.4934580000117
14	2	2	filler	49	None	Left	LeftArrow	NaN	0.670800100080669	49.5	49.4934785000514	50.0018478999846	51.9934636000544
15	2	3	distractor	71	Right	Right	RightArrow	1	2.1816281999927	53	52.9934191000648	53.5011162001174	55.5001396001317
16	2	4	distractor	8	Right	Left	LeftArrow	0	1.00554249994457	56.5	56.4934603001457	56.9994811001234	58.9933874001727
17	2	5	target	72	Left	Left	LeftArrow	1	1.01536850002594	60	59.9935171001125	60.5011217000429	62.493371500168
18	2	6	target	7	Left	Right	RightArrow	0	0.416929199825972	63.5	63.4934398999903	64.0003717001528	65.9935286000837
19	2	7	distractor	50	Right			-1	0	67	66.9931012999732	67.4934149000328	69.4940590001643
20	2	8	target	9	Left	Left	LeftArrow	1	0.579774300102144	70.5	70.509673200082	71.0021585000213	72.9934402999934
21	2	9	target	51	Left	Right	RightArrow	0	0.86696260003373	74	73.9933702000417	74.4976152000017	76.4934366000816
22	2	10	distractor	29	Right	Left	LeftArrow	0	1.07181699993089	77.5	77.4934682999738	77.9933907000814	79.9935216000304
23	2	11	distractor	70	Right	Right	RightArrow	1	1.36463059997186	81	80.9931024999823	81.4983679000288	83.4930521999486
24	2	12	target	28	Left	Left	LeftArrow	1	0.378031900152564	84.5	84.493492100155	85.0013784000184	86.993463100167
25	3	1	filler	33	None	Right	RightArrow	NaN	0.623143099946901	88	87.9934927001595	88.4995236000977	90.4934738001321
26	3	2	filler	54	None			NaN	0	91.5	91.4934904000256	91.9964084001258	93.998063800158
27	3	3	distractor	75	Right	Right	RightArrow	1	1.53813520004041	95	95.0071901001502	95.4968000999652	97.4935014001094
28	3	4	distractor	10	Right	Right	RightArrow	1	0.991171399829909	98.5	98.4934660000727	98.996521100169	100.993457900127
29	3	5	target	73	Left	Left	LeftArrow	1	2.08154010004364	102	101.993374299956	102.499406500021	104.49718299997
30	3	6	target	12	Left	Right	RightArrow	0	0.262933799996972	105.5	105.493449399946	105.99738740013	107.993431300158
31	3	7	target	74	Left	Right	RightArrow	0	0.311385799897835	109	108.993419599952	109.500942900078	111.493450999958
32	3	8	distractor	53	Right	Left	LeftArrow	0	0.559640299994498	112.5	112.493009400088	112.999098800123	114.993381600128
33	3	9	distractor	32	Right	Right	RightArrow	1	1.2943474999629	116	115.993369700154	116.498196	118.493067600066
34	3	10	target	52	Left	Left	LeftArrow	1	1.28350830008276	119.5	119.493390999967	120.001601200085	121.993055900093
35	3	11	target	31	Left	Right	RightArrow	0	1.06111720018089	123	122.993464699946	123.499629799975	125.493401100161
36	3	12	distractor	11	Right	Right	RightArrow	1	1.14022079994902	126.5	126.493484500097	126.9977678	128.993400000036
37	4	1	filler	56	None	Left	LeftArrow	NaN	0.344540600199252	130	129.993492100155	130.499795099953	132.493455599993
38	4	2	filler	55	None			NaN	0	133.5	133.493468400091	133.999841199955	135.998079000041
39	4	3	distractor	13	Right	Right	RightArrow	1	0.470678500132635	137	137.008406399982	137.497105699964	139.493401900167
40	4	4	distractor	14	Right	Right	RightArrow	1	1.36096330010332	140.5	140.493710499955	141.001779200044	142.993422799977
41	4	5	distractor	78	Right	Left	LeftArrow	0	0.383098799968138	144	143.993039400084	144.499500400154	146.493483399972
42	4	6	target	15	Left	Left	LeftArrow	1	0.252290799980983	147.5	147.493441900006	148.001780700171	149.993488900131
43	4	7	target	76	Left	Left	LeftArrow	1	0.837270800024271	151	150.99348439998	151.500906100031	153.49338530004
44	4	8	distractor	36	Right	Right	RightArrow	1	1.14798810007051	154.5	154.493492200039	155.001536400057	156.993330900092
45	4	9	target	77	Left	Left	LeftArrow	1	1.83404180011712	158	157.993503400125	158.498088099994	160.493460300146
46	4	10	target	35	Left	Left	LeftArrow	1	1.57975280005485	161.5	161.493473400129	162.001533800038	163.993473300012
47	4	11	distractor	57	Right	Right	RightArrow	1	0.499610400060192	165	164.993478600169	165.500810700003	167.493384900037
48	4	12	target	34	Left	Left	LeftArrow	1	0.369130400009453	168.5	168.493471299997	168.997393300058	170.99349569995
49	5	1	filler	58	None			NaN	0	172	171.993264100049	172.497176500037	174.497568600113
50	5	2	filler	18	None			NaN	0	175.5	175.505569400033	176.002665600041	177.995770500042
51	5	3	target	60	Left	Left	LeftArrow	1	0.729290300048888	179	179.007058199961	179.496905599954	181.493413800141
52	5	4	target	16	Left	Right	RightArrow	0	0.56301309983246	182.5	182.493348000105	182.998431600165	184.993478000164
53	5	5	distractor	80	Right	Left	LeftArrow	0	1.06416270020418	186	185.993468099972	186.496935199946	188.493075300008
54	5	6	target	17	Left	Left	LeftArrow	1	1.20435949997045	189.5	189.493497200077	189.998664000072	191.993473000126
55	5	7	distractor	38	Right	Right	RightArrow	1	0.336929799988866	193	192.993392700097	193.498687000014	195.493464800064
56	5	8	distractor	81	Right	Left	LeftArrow	0	0.979385999962687	196.5	196.493466000073	197.001787099987	198.9934849001
57	5	9	target	37	Left	Right	RightArrow	0	0.809448899934068	200	199.993063800037	200.500949300127	202.493397400016
58	5	10	distractor	59	Right	Left	LeftArrow	0	0.313484400045127	203.5	203.493476500036	204.001801599981	205.993145599961
59	5	11	target	39	Left	Right	RightArrow	0	0.876170699950308	207	206.993345000083	207.499853000045	209.493559200084
60	5	12	distractor	79	Right	Right	RightArrow	1	2.27006440004334	210.5	210.493386900052	210.999123499962	212.999806600157
61	6	1	filler	42	None			NaN	0	214	213.993473300012	214.500494500156	216.49403270008
62	6	2	filler	83	None			NaN	0	217.5	217.503897099989	217.999957500026	219.996361100115
63	6	3	target	40	Left	Left	LeftArrow	1	1.0533592000138	221	221.003788199974	221.497433400014	223.493378899992
64	6	4	target	84	Left	Right	RightArrow	0	0.448811199981719	224.5	224.493494200055	224.999140599975	226.993396000005
65	6	5	distractor	61	Right	Right	RightArrow	1	0.279993199976161	228	227.992955400143	228.496213700157	230.493396100122
66	6	6	target	82	Left	Left	LeftArrow	1	0.677626200020313	231.5	231.493463800056	231.996779900044	233.993479500059
67	6	7	distractor	19	Right	Left	LeftArrow	0	0.738623500103131	235	234.993395900121	235.501072600018	237.493455999997
68	6	8	distractor	41	Right	Left	LeftArrow	0	1.43435470014811	238.5	238.493473400129	238.998305100016	240.993489700137
69	6	9	distractor	63	Right	Right	RightArrow	1	0.494166600052267	242	241.993532800116	242.500905500026	244.493024999974
70	6	10	distractor	21	Right	Left	LeftArrow	0	1.1615112000145	245.5	245.493507400155	245.999204500113	247.993477500044
71	6	11	target	62	Left			-1	0	249	248.993362300098	249.498780900147	251.495398400119
72	6	12	target	20	Left	Right	RightArrow	0	0.574519199784845	252.5	252.507946700091	252.998157000169	254.993393599987
