trial_id	block	trial	type	stim_id	cresp	resp	resp_raw	acc	rt	trial_start_time_expt	trial_start_time	stim_onset_time	stim_offset_time
1	1	1	filler	41	None			NaN	0	4	3.99420310000005	4.50663670000085	6.4947858000005
2	1	2	filler	42	None			NaN	0	7.5	7.51612190000014	8.00221890000012	9.99732640000002
3	1	3	distractor	5	Right	Left	LeftArrow	0	0.551358700000492	11	11.0105927000004	11.5004306000001	13.4934976000004
4	1	4	target	43	Left	Left	LeftArrow	1	1.02835529999993	14.5	14.4935156000001	15.0034607000007	16.9934803000006
5	1	5	target	7	Left	Right	RightArrow	0	0.588327200000094	18	17.9935714000003	18.5035168000004	20.4935282000006
6	1	6	distractor	6	Right	Left	LeftArrow	0	0.927158500000587	21.5	21.4936380000008	21.9996412	23.9935210000003
7	1	7	target	9	Left	Right	RightArrow	0	1.30379739999989	25	24.9935452000009	25.5001095000007	27.4935508000008
8	1	8	distractor	45	Right	Left	LeftArrow	0	1.07988350000051	28.5	28.4934727000009	28.9986981000002	30.9934708000001
9	1	9	distractor	44	Right	Left	LeftArrow	0	1.11121980000007	32	31.9934983000003	32.5017581000002	34.4935133000008
10	1	10	distractor	10	Right	Left	LeftArrow	0	1.42152200000055	35.5	35.4935101000001	36.0011604000001	37.9934639000003
11	1	11	target	46	Left	Left	LeftArrow	1	1.51180269999986	39	38.9938443000001	39.4986826000004	41.4934875000008
12	1	12	target	8	Left	Left	LeftArrow	1	0.60018459999992	42.5	42.4935368000006	42.9991682000009	44.9934663000004
13	2	1	filler	51	None			NaN	0	46	45.9934093000002	46.5020444000002	48.4971809000008
14	2	2	filler	12	None			NaN	0	49.5	49.5085279000004	50.0025766000008	51.9991814000005
15	2	3	distractor	14	Right	Right	RightArrow	1	0.415162000000237	53	53.0064733000008	53.4998491000006	55.4934613000005
16	2	4	distractor	47	Right	Left	LeftArrow	0	0.706677500000296	56.5	56.4935151000009	57.0011104000005	58.9935064000001
17	2	5	distractor	49	Right	Left	LeftArrow	0	0.939274700000169	60	59.9935492000004	60.5026210000005	62.4935114000009
18	2	6	target	52	Left	Left	LeftArrow	1	1.21492399999988	63.5	63.4935412000004	64.0043623000001	65.9935055000005
19	2	7	target	50	Left	Right	RightArrow	0	1.60142360000009	67	66.9935319000006	67.5034170000008	69.4935208000006
20	2	8	target	48	Left	Right	RightArrow	0	1.07533890000013	70.5	70.493418	71.0014911000007	72.9935276000006
21	2	9	distractor	16	Right	Left	LeftArrow	0	0.749599700000545	74	73.9940955000002	74.5028971000002	76.4934499000001
22	2	10	distractor	13	Right	Right	RightArrow	1	0.602809999999408	77.5	77.4933851000005	78.0017128000009	79.9935310000001
23	2	11	target	11	Left	Left	LeftArrow	1	0.684605800000099	81	80.9934736000005	81.5028656000004	83.4935016000009
24	2	12	target	15	Left	Right	RightArrow	0	0.891668799999934	84.5	84.4935536000003	85.0002823000004	86.9935087000003
25	3	1	filler	17	None			NaN	0	88	87.9934345000001	88.5041809000004	90.4953264000005
26	3	2	filler	57	None			NaN	0	91.5	91.5102189000008	92.0014902000003	93.9994674000009
27	3	3	distractor	53	Right	Left	LeftArrow	0	2.05608459999985	95	95.0086339000009	95.4934108000007	97.4940626000007
28	3	4	distractor	20	Right	Left	LeftArrow	0	0.646026999999776	98.5	98.4935223000002	98.9990338000007	100.9935031
29	3	5	target	58	Left	Left	LeftArrow	1	0.783073599999625	102	101.993517700001	102.5034142	104.493709400001
30	3	6	distractor	56	Right	Left	LeftArrow	0	0.717868099999578	105.5	105.4935359	105.998446600001	107.9935069
31	3	7	target	55	Left	Left	LeftArrow	1	0.778295799999796	109	108.993358600001	109.4990998	111.4933581
32	3	8	distractor	21	Right	Left	LeftArrow	0	0.177891600000294	112.5	112.493588400001	112.998819500001	114.993519600001
33	3	9	target	54	Left	Left	LeftArrow	1	0.675364900000204	116	115.9933969	116.5005497	118.4935101
34	3	10	target	22	Left	Right	RightArrow	0	0.750483599999825	119.5	119.4935074	119.999235400001	121.993524300001
35	3	11	distractor	19	Right	Left	LeftArrow	0	0.840143000000353	123	122.993425600001	123.4970099	125.4935064
36	3	12	target	18	Left	Right	RightArrow	0	1.12720699999954	126.5	126.493428700001	127.002697800001	128.993507000001
37	4	1	filler	24	None			NaN	0	130	129.9934835	130.501057000001	132.4989857
38	4	2	filler	63	None			NaN	0	133.5	133.5060249	134.003969000001	135.998366900001
39	4	3	target	26	Left	Left	LeftArrow	1	0.500584599998547	137	137.004663600001	137.498799500001	139.4934944
40	4	4	distractor	23	Right	Left	LeftArrow	0	1.59145179999905	140.5	140.4936029	141.000120500001	142.9936328
41	4	5	distractor	59	Right	Right	RightArrow	1	0.495890599999257	144	143.993481900001	144.504314600001	146.4934116
42	4	6	target	27	Left	Left	LeftArrow	1	0.532817300001625	147.5	147.493508700001	147.9976517	149.993464900001
43	4	7	distractor	25	Right	Right	RightArrow	1	0.441098500001317	151	150.9933905	151.5002623	153.493511300001
44	4	8	target	28	Left	Left	LeftArrow	1	0.580148299999564	154.5	154.493467	155.0015571	156.993421200001
45	4	9	distractor	64	Right	Left	LeftArrow	0	0.708052899999529	158	157.9934397	158.498663600001	160.4934374
46	4	10	distractor	62	Right	Right	RightArrow	1	0.736486100000548	161.5	161.493133	162.0028115	163.9934168
47	4	11	target	60	Left	Left	LeftArrow	1	1.71475129999999	165	164.9935049	165.498167	167.493513700001
48	4	12	target	61	Left	Right	RightArrow	0	0.482054299998708	168.5	168.4933234	169.000368300001	170.993501000001
49	5	1	filler	32	None			NaN	0	172	171.9934868	172.504675800001	174.496877600001
50	5	2	filler	34	None			NaN	0	175.5	175.5053441	176.000617	177.994266600001
51	5	3	target	31	Left	Left	LeftArrow	1	0.257965699998749	179	179.0057999	179.498881200001	181.493715000001
52	5	4	distractor	65	Right	Right	RightArrow	1	0.694995699999708	182.5	182.493403600001	182.998371600001	184.993454400001
53	5	5	distractor	68	Right	Left	LeftArrow	0	0.631359700000758	186	185.993471400001	186.5026504	188.493496900001
54	5	6	distractor	30	Right	Left	LeftArrow	0	0.466330499999458	189.5	189.4934103	189.998364900001	191.9935038
55	5	7	target	70	Left	Left	LeftArrow	1	0.38285630000064	193	192.993443200001	193.497104300001	195.493531100001
56	5	8	distractor	67	Right	Right	RightArrow	1	1.03357020000112	196.5	196.493536400001	197.0015945	198.993493600001
57	5	9	target	66	Left	Left	LeftArrow	1	0.554887500000405	200	199.993534500001	200.5005143	202.4935286
58	5	10	distractor	29	Right	Left	LeftArrow	0	0.811335500000496	203.5	203.493504400001	203.9976917	205.9935147
59	5	11	target	69	Left	Left	LeftArrow	1	0.799888600000486	207	206.9934859	207.5016648	209.4934933
60	5	12	target	33	Left	Right	RightArrow	0	1.07485289999931	210.5	210.493432200001	211.001307100001	212.9935957
61	6	1	filler	38	None			NaN	0	214	213.993572200001	214.504637600001	216.4968125
62	6	2	filler	37	None			NaN	0	217.5	217.507891200001	218.003539000001	219.9952128
63	6	3	distractor	75	Right	Right	RightArrow	1	1.44644549999975	221	221.0054308	221.5029137	223.493479500001
64	6	4	target	36	Left	Left	LeftArrow	1	1.81593090000024	224.5	224.493503	225.0036385	226.9935224
65	6	5	target	76	Left	Left	LeftArrow	1	1.06080130000009	228	227.993503600001	228.503654600001	230.4934823
66	6	6	distractor	71	Right	Left	LeftArrow	0	0.389891000000716	231.5	231.493513200001	231.9990106	233.9935011
67	6	7	target	74	Left			-1	0	235	234.993540900001	235.4980338	237.5012443
68	6	8	target	73	Left	Left	LeftArrow	1	0.283804100001362	238.5	238.507653000001	239.0020962	240.993459000001
69	6	9	distractor	39	Right	Right	RightArrow	1	0.882904800000688	242	241.9935343	242.499963	244.4935007
70	6	10	distractor	40	Right	Left	LeftArrow	0	0.847380000001067	245.5	245.4935117	245.9979778	247.993590600001
71	6	11	target	35	Left	Left	LeftArrow	1	1.6621897999994	249	248.9934455	249.497429700001	251.494211000001
72	6	12	distractor	72	Right	Right	RightArrow	1	0.782208799999353	252.5	252.493683800001	252.998471700001	254.993466800001
