trial_id	block	trial	type	stim_id	cresp	resp	resp_raw	acc	rt	trial_start_time_expt	trial_start_time	stim_onset_time	stim_offset_time
1	1	1	filler	5	None			NaN	0	4	3.99348359997384	4.50615079980344	6.49451119988225
2	1	2	filler	25	None			NaN	0	7.5	7.50991909997538	7.99969199998304	9.99858569982462
3	1	3	target	4	Left	Left	LeftArrow	1	1.94025949994102	11	11.0092779998668	11.5018994999118	13.4934620999265
4	1	4	target	27	Left	Left	LeftArrow	1	0.945999799994752	14.5	14.4934459999204	14.9959989998024	16.9933883999474
5	1	5	target	6	Left	Left	LeftArrow	1	1.52773199998774	18	17.9934196998365	18.5001201999839	20.4930736999959
6	1	6	distractor	48	Right	Right	RightArrow	1	1.42710839980282	21.5	21.4930836998392	22.0010395999998	23.9935025000013
7	1	7	distractor	46	Right	Right	RightArrow	1	1.42396440007724	25	24.9933997998014	25.4963280998636	27.4933960998897
8	1	8	target	47	Left	Right	RightArrow	0	1.1673971998971	28.5	28.4930843999609	29.0006438998971	30.9933970000129
9	1	9	distractor	26	Right	Right	RightArrow	1	1.19471879978664	32	31.9931947998703	32.5001840000041	34.4934678999707
10	1	10	distractor	67	Right	Right	RightArrow	1	0.813864799914882	35.5	35.4934817999601	36.001896899892	37.993442399893
11	1	11	distractor	68	Right	Right	RightArrow	1	1.25836850004271	39	38.9934250998776	39.4966275999323	41.4939139999915
12	1	12	target	69	Left	Left	LeftArrow	1	0.971636099973693	42.5	42.4936150999274	42.9966241999064	44.9933485998772
13	2	1	filler	30	None	Left	LeftArrow	NaN	1.57861329987645	46	45.9931671000086	46.498910299968	48.4933658998925
14	2	2	filler	49	None	Left	LeftArrow	NaN	1.06227370002307	49.5	49.4934010999277	50.0002550999634	51.9934055998456
15	2	3	distractor	71	Right	Left	LeftArrow	0	1.5322879999876	53	52.9934234998655	53.4965754998848	55.4934677998535
16	2	4	distractor	8	Right	Right	RightArrow	1	1.38801900018007	56.5	56.4930773999076	56.9994277998339	58.9934622999281
17	2	5	target	72	Left	Left	LeftArrow	1	0.48530160007067	60	59.993475999916	60.4999288998079	62.4933530997951
18	2	6	target	7	Left	Left	LeftArrow	1	1.51707589998841	63.5	63.4933060999028	64.0016725999303	65.9933956000023
19	2	7	distractor	50	Right	Left	LeftArrow	0	1.39760240004398	67	66.9934184998274	67.4990920999553	69.4934999998659
20	2	8	target	9	Left	Right	RightArrow	0	1.52219619997777	70.5	70.4934270000085	70.9984094998799	72.9933855999261
21	2	9	target	51	Left	Left	LeftArrow	1	1.25503679993562	74	73.9935190998949	74.5022956999019	76.4934580000117
22	2	10	distractor	29	Right	Right	RightArrow	1	1.41281210002489	77.5	77.493880199967	78.0009017998818	79.9933964000084
23	2	11	distractor	70	Right	Right	RightArrow	1	1.37197219999507	81	80.9930101998616	81.4962113997899	83.4933520997874
24	2	12	target	28	Left	Right	RightArrow	0	1.37770329997875	84.5	84.4934978999663	84.9982475999277	86.9934669998474
25	3	1	filler	33	None	Left	LeftArrow	NaN	1.94614240014926	88	87.9932192999404	88.4973821998574	90.4933845999185
26	3	2	filler	54	None			NaN	0	91.5	91.4933973997831	92.000000400003	93.997329399921
27	3	3	distractor	75	Right	Left	LeftArrow	0	2.03823229996487	95	95.0056322999299	95.4981269999407	97.4974596998654
28	3	4	distractor	10	Right	Right	RightArrow	1	1.32951139984652	98.5	98.4934762998018	98.9979059000034	100.993384699803
29	3	5	target	73	Left	Right	RightArrow	0	1.72624400001951	102	101.993508099811	102.499933299841	104.493314099964
30	3	6	target	12	Left	Right	RightArrow	0	1.66066919988953	105.5	105.493056599982	105.997452799929	107.993634199956
31	3	7	target	74	Left	Right	RightArrow	0	2.0315662000794	109	108.993551099906	109.49760319991	111.49671899993
32	3	8	distractor	53	Right	Left	LeftArrow	0	1.14518120000139	112.5	112.493322099792	112.996287499787	114.993422099855
33	3	9	distractor	32	Right	Right	RightArrow	1	0.994823999935761	116	115.993089600001	116.502303999849	118.493437299971
34	3	10	target	52	Left	Right	RightArrow	0	1.65247930004261	119.5	119.49346999987	120.001842899946	121.993501999881
35	3	11	target	31	Left	Right	RightArrow	0	1.29758869996294	123	122.993443799904	123.497985899914	125.493336499901
36	3	12	distractor	11	Right	Left	LeftArrow	0	0.830861099995673	126.5	126.493392099859	127.00147249992	128.993457499892
37	4	1	filler	56	None			NaN	0	130	129.993496999843	130.499071399914	132.496310399845
38	4	2	filler	55	None			NaN	0	133.5	133.499853899935	133.998217899818	135.993857299909
39	4	3	distractor	13	Right	Right	RightArrow	1	1.43385999999009	137	137.007147099823	137.495749599999	139.493467699969
40	4	4	distractor	14	Right	Right	RightArrow	1	1.38560289982706	140.5	140.493166500004	141.001309999963	142.993409099989
41	4	5	distractor	78	Right	Right	RightArrow	1	1.80284999986179	144	143.993510099826	144.496926499996	146.493534899782
42	4	6	target	15	Left	Left	LeftArrow	1	1.40978340012953	147.5	147.493449199945	148.000662299804	149.993411300005
43	4	7	target	76	Left	Right	RightArrow	0	1.79549729987048	151	150.993429399794	151.498514099978	153.493467699969
44	4	8	distractor	36	Right	Left	LeftArrow	0	1.23058360000141	154.5	154.493399899919	154.997365799965	156.993455899879
45	4	9	target	77	Left	Right	RightArrow	0	1.43236099998467	158	157.993434699951	158.500160899945	160.493381999899
46	4	10	target	35	Left	Left	LeftArrow	1	1.11389419995248	161.5	161.493286999874	161.996101599885	163.993511199951
47	4	11	distractor	57	Right	Right	RightArrow	1	1.22487729997374	165	164.993398899911	165.499297099886	167.493481099838
48	4	12	target	34	Left	Left	LeftArrow	1	1.17376470007002	168.5	168.493404599838	169.001244399929	170.993468899978
49	5	1	filler	58	None			NaN	0	172	171.993412399897	172.502419799799	174.496455499902
50	5	2	filler	18	None			NaN	0	175.5	175.503890499938	175.996198999928	177.99696449982
51	5	3	target	60	Left	Right	RightArrow	0	2.23753080004826	179	179.00670599984	179.499586599879	181.494058099808
52	5	4	target	16	Left	Right	RightArrow	0	1.73189130006358	182.5	182.493591699982	182.998784899944	184.993690799922
53	5	5	distractor	80	Right	Right	RightArrow	1	1.55261319992132	186	185.993043999886	186.500153099885	188.493361099856
54	5	6	target	17	Left	Left	LeftArrow	1	1.42146899993531	189.5	189.493247099919	189.999216199853	191.993476999924
55	5	7	distractor	38	Right	Right	RightArrow	1	1.22053400008008	193	192.993402099935	193.497291399864	195.493462899933
56	5	8	distractor	81	Right	Left	LeftArrow	0	0.983059599995613	196.5	196.493255599868	197.000510899816	198.993476399919
57	5	9	target	37	Left	Right	RightArrow	0	0.969880899880081	200	199.99344250001	200.500660199905	202.493479799945
58	5	10	distractor	59	Right	Left	LeftArrow	0	0.720392500050366	203.5	203.493279199814	204.000712499954	205.993463799823
59	5	11	target	39	Left	Right	RightArrow	0	1.25038280012086	207	206.993506299797	207.49865149986	209.493408499984
60	5	12	distractor	79	Right	Left	LeftArrow	0	1.59234479977749	210.5	210.493522999808	210.999603200005	212.99339139997
61	6	1	filler	42	None			NaN	0	214	213.993503300007	214.498507499928	216.494277899852
62	6	2	filler	83	None			NaN	0	217.5	217.504469199805	218.001253899885	219.998767599929
63	6	3	target	40	Left	Right	RightArrow	0	1.24412490008399	221	221.004734499846	221.500422099838	223.4933842998
64	6	4	target	84	Left	Right	RightArrow	0	1.37654369999655	224.5	224.493470899994	224.999450000003	226.99344459991
65	6	5	distractor	61	Right	Right	RightArrow	1	1.23835050011985	228	227.993417899823	228.499916599831	230.493471599882
66	6	6	target	82	Left	Left	LeftArrow	1	1.22549419989809	231.5	231.493361699861	231.996495499974	233.993302299874
67	6	7	distractor	19	Right	Right	RightArrow	1	1.23017000011168	235	234.993546099868	235.497194599826	237.493416299811
68	6	8	distractor	41	Right	Left	LeftArrow	0	1.75189050007612	238.5	238.49340269994	238.999133999925	240.993466699962
69	6	9	distractor	63	Right	Left	LeftArrow	0	1.80994540010579	242	241.993434999837	242.4968373999	244.493465399835
70	6	10	distractor	21	Right	Right	RightArrow	1	1.40201140008867	245.5	245.493480799953	245.998743099859	247.99348529987
71	6	11	target	62	Left	Right	RightArrow	0	1.82850250019692	249	248.993469599867	249.501348599792	251.493504799902
72	6	12	target	20	Left	Left	LeftArrow	1	1.82768490002491	252.5	252.493487	252.996911099879	254.993340499932
