trial_id	block	trial	type	stim_id	cresp	resp	resp_raw	acc	rt	trial_start_time_expt	trial_start_time	stim_onset_time	stim_offset_time
1	1	1	filler	5	None			NaN	0	4	3.9933964998927	4.51248049992137	6.49591360008344
2	1	2	filler	25	None			NaN	0	7.5	7.50602039997466	7.99895559996367	9.99871700000949
3	1	3	target	4	Left	Left	LeftArrow	1	0.960497800027952	11	11.0081676999107	11.4995474999305	13.4933925000951
4	1	4	target	27	Left	Left	LeftArrow	1	1.75371060008183	14.5	14.4933567000553	14.9992905999534	16.993534799898
5	1	5	target	6	Left	Left	LeftArrow	1	1.150062300032	18	17.9930765999015	18.4961526000407	20.4933044998907
6	1	6	distractor	48	Right	Right	RightArrow	1	1.32437509996817	21.5	21.4932748998981	21.9961687999312	23.9933492001146
7	1	7	distractor	46	Right	Left	LeftArrow	0	0.991255200002342	25	24.9931727999356	25.5004469000269	27.4934300999157
8	1	8	target	47	Left	Left	LeftArrow	1	1.67406719992869	28.5	28.4934537000954	29.0015092000831	30.993470699992
9	1	9	distractor	26	Right	Right	RightArrow	1	1.17895910004154	32	31.993451599963	32.4964020999614	34.4931105000433
10	1	10	distractor	67	Right	Left	LeftArrow	0	1.53049100004137	35.5	35.4930732001085	36.0004777999129	37.9930533999577
11	1	11	distractor	68	Right	Left	LeftArrow	0	1.09481170005165	39	38.9934092001058	39.5013770998921	41.4934799000621
12	1	12	target	69	Left	Right	RightArrow	0	1.70125010004267	42.5	42.4931731999386	42.9972546999343	44.9934608999174
13	2	1	filler	30	None			NaN	0	46	45.9934684000909	46.4970611999743	48.4956932999194
14	2	2	filler	49	None			NaN	0	49.5	49.5074352000374	49.9955824001227	51.9955857000314
15	2	3	distractor	71	Right	Right	RightArrow	1	0.954988300101832	53	53.0056237000972	53.497063399991	55.4930928999092
16	2	4	distractor	8	Right			-1	0	56.5	56.4932063999586	57.0001630999614	59.0007772999816
17	2	5	target	72	Left	Left	LeftArrow	1	1.20184720004909	60	60.0044323001057	60.4991681000683	62.4934590999037
18	2	6	target	7	Left	Right	RightArrow	0	0.899935299996287	63.5	63.4934342999477	63.9990244999062	65.9934251001105
19	2	7	distractor	50	Right	Right	RightArrow	1	1.29839220014401	67	66.99341190001	67.5005473999772	69.4934439999051
20	2	8	target	9	Left	Right	RightArrow	0	0.767407499952242	70.5	70.4933021999896	70.9968801001087	72.9933668999001
21	2	9	target	51	Left	Left	LeftArrow	1	0.748057599877939	74	73.9933994999155	74.5002707000822	76.4932299999055
22	2	10	distractor	29	Right	Left	LeftArrow	0	1.4764498998411	77.5	77.4930533000734	77.9968968001194	79.9934771999251
23	2	11	distractor	70	Right	Right	RightArrow	1	0.544999500038102	81	80.9934189000633	81.4963428999763	83.4934064000845
24	2	12	target	28	Left	Right	RightArrow	0	0.954611499793828	84.5	84.4933748999611	84.9993553000968	86.9934797000606
25	3	1	filler	33	None			NaN	0	88	87.9934044999536	88.5000750999898	90.4939500000328
26	3	2	filler	54	None			NaN	0	91.5	91.5078374999575	92.0016054001171	93.9996211999096
27	3	3	distractor	75	Right	Right	RightArrow	1	1.6573202998843	95	95.0044386999216	95.4979934000876	97.4934646999463
28	3	4	distractor	10	Right	Right	RightArrow	1	1.61700030020438	98.5	98.4933581999503	98.9993616999127	100.99344859994
29	3	5	target	73	Left	Left	LeftArrow	1	1.08408599998802	102	101.993340200046	102.496167999925	104.493467499968
30	3	6	target	12	Left	Left	LeftArrow	1	1.16521089989692	105.5	105.49303189991	106.000373600051	107.993087100098
31	3	7	target	74	Left	Left	LeftArrow	1	0.896520799957216	109	108.993493200047	109.496246899944	111.493473900016
32	3	8	distractor	53	Right	Left	LeftArrow	0	1.44607810000889	112.5	112.493506500032	113.001580100041	114.993395400001
33	3	9	distractor	32	Right	Right	RightArrow	1	1.15457020001486	116	115.993491299916	116.500777499983	118.493395500118
34	3	10	target	52	Left			-1	0	119.5	119.493470200105	119.996222899994	121.99495600001
35	3	11	target	31	Left	Right	RightArrow	0	0.92203769995831	123	123.007941199932	123.496641600039	125.493109100033
36	3	12	distractor	11	Right	Left	LeftArrow	0	1.62422729982063	126.5	126.493038899964	126.996587600093	128.993874300038
37	4	1	filler	56	None			NaN	0	130	129.993585499935	130.497567800106	132.498211700004
38	4	2	filler	55	None			NaN	0	133.5	133.504680400016	134.001494300086	135.995476000011
39	4	3	distractor	13	Right	Right	RightArrow	1	0.838471699971706	137	137.004683299921	137.498231600039	139.493376899976
40	4	4	distractor	14	Right	Left	LeftArrow	0	2.69110659998842	140.5	140.493411999894	140.996069000103	142.999353799969
41	4	5	distractor	78	Right	Right	RightArrow	1	1.53183929994702	144	143.993471400114	144.501262200065	146.493073200108
42	4	6	target	15	Left	Right	RightArrow	0	0.877358400030062	147.5	147.493065800052	147.999157299986	149.993410400115
43	4	7	target	76	Left	Left	LeftArrow	1	1.00774370017461	151	150.993495600065	151.501591099892	153.493449900066
44	4	8	distractor	36	Right	Right	RightArrow	1	1.35702349990606	154.5	154.493077399908	155.000489600003	156.993423100095
45	4	9	target	77	Left	Left	LeftArrow	1	1.47045540018007	158	157.993485399988	158.501242599916	160.493296700064
46	4	10	target	35	Left	Right	RightArrow	0	1.11276519997045	161.5	161.493309400044	161.998822900001	163.993420199957
47	4	11	distractor	57	Right	Left	LeftArrow	0	0.690660299966112	165	164.993872900028	165.499165100046	167.493132499978
48	4	12	target	34	Left	Right	RightArrow	0	2.56737269996665	168.5	168.493448500056	168.996240800014	170.994723800104
49	5	1	filler	58	None			NaN	0	172	171.993451399961	172.497625299962	174.497035899898
50	5	2	filler	18	None			NaN	0	175.5	175.509173300117	175.996008099988	177.995552999899
51	5	3	target	60	Left	Left	LeftArrow	1	0.946519799996167	179	179.005829100031	179.499348399928	181.493472400121
52	5	4	target	16	Left	Left	LeftArrow	1	2.18441050010733	182.5	182.493042699993	183.00123709999	184.995739900041
53	5	5	distractor	80	Right	Right	RightArrow	1	1.33318460010923	186	185.993463200051	186.496286500013	188.493469400099
54	5	6	target	17	Left	Right	RightArrow	0	1.12766979984008	189.5	189.493403099943	189.997613900108	191.993492400041
55	5	7	distractor	38	Right	Right	RightArrow	1	1.90161050017923	193	192.993402400054	193.501287499908	195.493563700002
56	5	8	distractor	81	Right	Left	LeftArrow	0	2.20966530009173	196.5	196.493514500093	197.001549599925	198.999034699984
57	5	9	target	37	Left	Right	RightArrow	0	1.00708299991675	200	199.994161800016	200.500544100069	202.493395900121
58	5	10	distractor	59	Right	Right	RightArrow	1	1.151524099987	203.5	203.493115700083	203.997159699909	205.993431899929
59	5	11	target	39	Left	Right	RightArrow	0	1.4947573998943	207	206.993051100057	207.5002599	209.493452700088
60	5	12	distractor	79	Right	Left	LeftArrow	0	1.03595179994591	210.5	210.49347570003	210.995929900091	212.993393700104
61	6	1	filler	42	None			NaN	0	214	213.993058199994	214.501497999998	216.498510600068
62	6	2	filler	83	None			NaN	0	217.5	217.503165999893	217.998700000113	219.995249900036
63	6	3	target	40	Left	Left	LeftArrow	1	1.16277629998513	221	221.006993799936	221.496985200094	223.493474399904
64	6	4	target	84	Left	Left	LeftArrow	1	1.42519939993508	224.5	224.493395500118	224.997909900034	226.993059800006
65	6	5	distractor	61	Right	Left	LeftArrow	0	1.2385792999994	228	227.993504700018	228.497526299907	230.493263999932
66	6	6	target	82	Left	Left	LeftArrow	1	1.36121400003321	231.5	231.493249800056	231.997384099988	233.993556099944
67	6	7	distractor	19	Right	Right	RightArrow	1	0.989178200019524	235	234.993440499995	235.494615199976	237.493440400111
68	6	8	distractor	41	Right	Left	LeftArrow	0	1.66782329999842	238.5	238.493357700063	239.000367600005	240.993444500025
69	6	9	distractor	63	Right	Left	LeftArrow	0	1.18006099993363	242	241.993440200109	242.499266400002	244.493488299893
70	6	10	distractor	21	Right	Right	RightArrow	1	0.314749399898574	245.5	245.493480500067	245.997269100044	247.993384599918
71	6	11	target	62	Left	Left	LeftArrow	1	1.18681939993985	249	248.993028800003	249.499321199954	251.493326399941
72	6	12	target	20	Left	Right	RightArrow	0	1.56246079993434	252.5	252.49312540004	252.998286999995	254.993495800067
