trial_id	block	trial	type	stim_id	cresp	resp	resp_raw	acc	rt	trial_start_time_expt	trial_start_time	stim_onset_time	stim_offset_time
1	1	1	filler	48	None	Right	RightArrow	NaN	2.32278560003033	4	3.99346189998323	4.50088859995594	6.4950709999539
2	1	2	filler	68	None	Right	RightArrow	NaN	1.17533400002867	7.5	7.49350229999982	8.00160679995315	9.99338609998813
3	1	3	target	46	Left	Left	LeftArrow	1	1.16916859999765	11	10.9934290999663	11.5019849999808	13.4933735999512
4	1	4	distractor	47	Right	Right	RightArrow	1	1.45750649995171	14.5	14.4931975999498	15.0027973999968	16.9933603999671
5	1	5	distractor	26	Right	Right	RightArrow	1	1.33702859998448	18	17.9930007999646	18.4992173999781	20.4930369999493
6	1	6	distractor	27	Right	Right	RightArrow	1	1.20998510002391	21.5	21.4936695999932	22.0033212999697	23.9933971999562
7	1	7	distractor	5	Right	Right	RightArrow	1	1.19441739999456	25	24.9933402999886	25.4985661999672	27.493097300001
8	1	8	target	25	Left	Right	RightArrow	0	0.879535399959423	28.5	28.4933364999597	28.9995786999934	30.9934408999979
9	1	9	target	4	Left	Right	RightArrow	0	1.4215415000217	32	31.9933631999884	32.5009684999823	34.4932878999971
10	1	10	distractor	69	Right	Right	RightArrow	1	2.25115689996164	35.5	35.4930787999765	36.0014986000024	37.9957779999822
11	1	11	target	6	Left	Right	RightArrow	0	0.607641100010369	39	38.9934426999534	39.495094999962	41.493422199972
12	1	12	target	67	Left	Right	RightArrow	0	1.71901589998743	42.5	42.4933694999781	43.0014735999866	44.9934591999627
13	2	1	filler	9	None			NaN	0	46	45.9933607999701	46.5018984999624	48.4993482999853
14	2	2	filler	30	None			NaN	0	49.5	49.509514299978	50.0027082999586	51.9961128999712
15	2	3	target	7	Left	Left	LeftArrow	1	1.4749747000169	53	53.009555800003	53.5015766999568	55.4933251999901
16	2	4	target	28	Left	Right	RightArrow	0	0.400157800002489	56.5	56.4938640999608	57.0037651999737	58.9933306999737
17	2	5	distractor	71	Right	Right	RightArrow	1	0.534896600001957	60	59.9933171999874	60.4984194999561	62.4933212999604
18	2	6	target	29	Left	Right	RightArrow	0	0.596861400001217	63.5	63.4931053000037	64.0024836999946	65.9933663999545
19	2	7	distractor	8	Right	Right	RightArrow	1	0.15132609999273	67	66.9933598999633	67.5003346999874	69.4933669999591
20	2	8	distractor	72	Right	Right	RightArrow	1	0.173420500010252	70.5	70.4933531999704	70.9995529999724	72.9933749999618
21	2	9	distractor	50	Right	Left	LeftArrow	0	0.315268800011836	74	73.9933600999648	74.4934350999538	76.4933256999939
22	2	10	target	70	Left	Right	RightArrow	0	0.365821600018535	77.5	77.493347199983	78.0003907999489	79.9929819999961
23	2	11	target	49	Left	Right	RightArrow	0	0.317618899978697	81	80.9934119999525	81.4933936999878	83.4934005999821
24	2	12	distractor	51	Right	Right	RightArrow	1	0.525817599962465	84.5	84.4933736999519	84.9933783999877	86.9934942999971
25	3	1	filler	31	None			NaN	0	88	87.9933653000044	88.4993504000013	90.4962843999965
26	3	2	filler	10	None			NaN	0	91.5	91.5059175999486	91.9990778999636	93.9973402000032
27	3	3	distractor	53	Right			-1	0	95	95.0089823000017	95.4974229999934	97.4989033999736
28	3	4	target	12	Left	Right	RightArrow	0	0.468956600001547	98.5	98.497459199978	98.9989015999599	100.993421799969
29	3	5	distractor	74	Right			-1	0	102	101.99340799998	102.499479999999	104.498172099993
30	3	6	target	11	Left	Right	RightArrow	0	0.0766619999776594	105.5	105.504029300006	106.000329200004	107.99344359996
31	3	7	target	75	Left			-1	0	109	108.993414099969	109.50251229998	111.496694299974
32	3	8	distractor	54	Right	Right	RightArrow	1	2.40101869998034	112.5	112.503433799953	112.999418099993	114.998545799986
33	3	9	distractor	32	Right	Right	RightArrow	1	1.19390589999966	116	115.993475799973	116.500373599993	118.493447299988
34	3	10	target	52	Left	Right	RightArrow	0	2.58891659998335	119.5	119.493452399969	119.993378999992	121.996447599959
35	3	11	target	33	Left	Right	RightArrow	0	1.90895559999626	123	122.993400699983	123.493354599981	125.493509299995
36	3	12	distractor	73	Right	Right	RightArrow	1	0.259123200026806	126.5	126.493308799982	127.001112399972	128.993322899973
37	4	1	filler	13	None	Right	RightArrow	NaN	0.225931200024206	130	129.992975799949	130.502448099956	132.493336699961
38	4	2	filler	14	None	Right	RightArrow	NaN	0.756718299991917	133.5	133.493390599964	133.993138399965	135.993440499995
39	4	3	target	15	Left	Left	LeftArrow	1	2.36290559999179	137	136.993368099967	137.502245299984	139.493982199987
40	4	4	distractor	56	Right	Right	RightArrow	1	1.80311609996716	140.5	140.493250200001	141.004117999983	142.99335949996
41	4	5	distractor	76	Right	Left	LeftArrow	0	0.67263919999823	144	143.993376499973	144.502465899976	146.4934259
42	4	6	target	55	Left	Right	RightArrow	0	0.118862800009083	147.5	147.493364299997	148.000820499961	149.993455299991
43	4	7	target	78	Left	Right	RightArrow	0	0.829458400025032	151	150.993430299975	151.502929799957	153.493444099964
44	4	8	distractor	36	Right	Right	RightArrow	1	2.43071329995291	154.5	154.493367799965	155.004961800005	156.998527199961
45	4	9	target	77	Left	Right	RightArrow	0	0.425959900021553	158	157.993496199953	158.500432599976	160.493556200003
46	4	10	target	35	Left	Right	RightArrow	0	1.99034160003066	161.5	161.493420099956	162.006806999969	163.999780099955
47	4	11	distractor	34	Right			-1	0	165	164.993205099949	165.499676499981	167.499091199948
48	4	12	distractor	57	Right	Left	LeftArrow	0	2.0520621999749	168.5	168.504041399981	169.000372799987	170.993833199958
49	5	1	filler	58	None			NaN	0	172	171.993368299969	172.504404499952	174.493853099993
50	5	2	filler	81	None			NaN	0	175.5	175.506938199978	176.001061499992	177.996591599949
51	5	3	target	60	Left	Right	RightArrow	0	1.52960020001046	179	179.003908899962	179.498490399972	181.493355499988
52	5	4	target	80	Left			-1	0	182.5	182.493395400001	182.998122899968	184.998888399976
53	5	5	distractor	18	Right	Right	RightArrow	1	0.443381300021429	186	186.00361049996	186.499431099975	188.493446899985
54	5	6	distractor	16	Right	Right	RightArrow	1	0.179693799989764	189.5	189.493365400005	190.002381999977	191.993367599964
55	5	7	distractor	39	Right	Right	RightArrow	1	0.358872999961022	193	192.993437099969	193.500702999998	195.493352699967
56	5	8	target	17	Left	Right	RightArrow	0	0.801061200036202	196.5	196.49352889997	196.999216199969	198.993486899999
57	5	9	target	38	Left	Left	LeftArrow	1	0.855214299983345	200	199.993306199962	200.498720699979	202.493152499956
58	5	10	distractor	59	Right			-1	0	203.5	203.49342329998	204.003676699998	205.99597509997
59	5	11	target	37	Left	Left	LeftArrow	1	0.748986300022807	207	207.006629899959	207.500460699957	209.493365500006
60	5	12	distractor	79	Right	Right	RightArrow	1	1.16799480002373	210.5	210.493228799955	210.998698099982	212.993033099978
61	6	1	filler	21	None			NaN	0	214	213.993370399985	214.498925399967	216.494981299969
62	6	2	filler	40	None			NaN	0	217.5	217.5038374	218.001264599967	219.994500399975
63	6	3	target	20	Left	Right	RightArrow	0	1.03075200004969	221	221.004019199987	221.500811699952	223.49337869999
64	6	4	distractor	62	Right	Right	RightArrow	1	1.3609967000084	224.5	224.493449100002	224.999964899966	226.993491399975
65	6	5	distractor	82	Right	Right	RightArrow	1	2.27666670002509	228	227.993355099985	228.501579499978	230.497139199986
66	6	6	target	61	Left	Left	LeftArrow	1	1.71844839997357	231.5	231.493548900005	232.000550800003	233.993374399957
67	6	7	target	83	Left	Right	RightArrow	0	1.17936239996925	235	234.993422999978	235.504050999996	237.493342300004
68	6	8	target	63	Left	Left	LeftArrow	1	1.07925399998203	238.5	238.493404399953	239.002374399977	240.993425699999
69	6	9	target	84	Left	Right	RightArrow	0	1.06092049996369	242	241.993484199978	242.50137469999	244.493368699972
70	6	10	distractor	41	Right	Right	RightArrow	1	1.20621000003302	245.5	245.493334900006	246.000789299957	247.993023399962
71	6	11	distractor	42	Right	Right	RightArrow	1	1.83070769999176	249	248.993034399988	249.500440899981	251.493454299984
72	6	12	distractor	19	Right	Right	RightArrow	1	0.537257999996655	252.5	252.49336969998	252.998918999976	254.993472599948
