trial_id	block	trial	type	stim_id	cresp	resp	resp_raw	acc	rt	trial_start_time_expt	trial_start_time	stim_onset_time	stim_offset_time
1	1	1	filler	41	None	Left	LeftArrow	NaN	1.84420609998051	4	3.99347730004229	4.50204730010591	6.49342250009067
2	1	2	filler	42	None	Left	LeftArrow	NaN	2.2198897000635	7.5	7.49342170008458	8.00505959999282	10.0004138000077
3	1	3	distractor	5	Right			-1	0	11	10.9933182999957	11.5015394000802	13.4985242000548
4	1	4	target	43	Left	Right	RightArrow	0	1.47787429997697	14.5	14.5091958000557	14.9990576000419	16.9934614000376
5	1	5	target	7	Left			-1	0	18	17.9933157000924	18.5029520000098	20.4965883000987
6	1	6	distractor	6	Right			-1	0	21.5	21.5061534000561	21.998139900039	23.99842180009
7	1	7	target	9	Left			-1	0	25	25.0043479000451	25.4930379000725	27.4953318000771
8	1	8	distractor	45	Right	Right	RightArrow	1	1.27306800009683	28.5	28.5088456000667	28.9994947999949	30.9934741000179
9	1	9	distractor	44	Right			-1	0	32	31.9935053000227	32.499075800064	34.4983087000437
10	1	10	distractor	10	Right			-1	0	35.5	35.5095691001043	35.9934245001059	37.9940544000128
11	1	11	target	46	Left	Right	RightArrow	0	2.39416129991878	39	39.0086957000894	39.4996895000804	41.493978500017
12	1	12	target	8	Left			-1	0	42.5	42.4934857001062	42.9978761000093	44.9960082001053
13	2	1	filler	51	None	Left	LeftArrow	NaN	1.81489769998007	46	46.0094023999991	46.5053016000893	48.4934447000269
14	2	2	filler	12	None	Right	RightArrow	NaN	2.89597059995867	49.5	49.4934863999952	49.9987353000324	51.9971926000435
15	2	3	distractor	14	Right			-1	0	53	52.9933818000136	53.5011858000653	55.4967764000176
16	2	4	distractor	47	Right	Right	RightArrow	1	1.45040430000518	56.5	56.503949200036	57.0020488000009	58.9934843000956
17	2	5	distractor	49	Right			-1	0	60	59.993476600037	60.5007417000597	62.4969670000719
18	2	6	target	52	Left	Left	LeftArrow	1	1.22372500004712	63.5	63.505553200026	64.0000073000556	65.9933025999926
19	2	7	target	50	Left	Right	RightArrow	0	2.72970020002685	67	66.9930624000262	67.5022375000408	69.4944965000032
20	2	8	target	48	Left	Left	LeftArrow	1	1.1568011000054	70.5	70.4934110000031	70.9981867000461	72.9935078000417
21	2	9	distractor	16	Right	Left	LeftArrow	0	1.09894880000502	74	73.993416900048	74.4977874000324	76.4934167000465
22	2	10	distractor	13	Right			-1	0	77.5	77.4934648000635	77.9983536000364	79.9948335000081
23	2	11	target	11	Left	Left	LeftArrow	1	2.278394700028	81	81.0056713999948	81.5021028000629	83.4983306000941
24	2	12	target	15	Left	Left	LeftArrow	1	1.78834249998908	84.5	84.4934811000712	85.0036426000297	86.9934813000727
25	3	1	filler	17	None	Left	LeftArrow	NaN	1.23737410001922	88	87.9934722000035	88.5032758000307	90.4934886000119
26	3	2	filler	57	None	Right	RightArrow	NaN	1.13795609993394	91.5	91.4933969000122	92.0030853000935	93.9934626000468
27	3	3	distractor	53	Right	Left	LeftArrow	0	2.93640809995122	95	94.9934905000264	95.4986374001019	97.4939721000846
28	3	4	distractor	20	Right	Right	RightArrow	1	2.16759650001768	98.5	98.4933758000843	99.0005997000262	100.996157600079
29	3	5	target	58	Left	Right	RightArrow	0	1.5685907000443	102	101.993476000032	102.501209600014	104.493508000043
30	3	6	distractor	56	Right	Left	LeftArrow	0	1.13987359998282	105.5	105.493417400052	105.996677900082	107.992996599991
31	3	7	target	55	Left	Right	RightArrow	0	0.653571099974215	109	108.993454400101	109.498523800052	111.493426500005
32	3	8	distractor	21	Right	Right	RightArrow	1	1.28487309999764	112.5	112.493448900059	113.000355300028	114.993456800003
33	3	9	target	54	Left	Right	RightArrow	0	1.40452400001232	116	115.99331540009	116.503613600042	118.493129500072
34	3	10	target	22	Left	Right	RightArrow	0	2.41645659995265	119.5	119.493392300094	120.001550600049	121.995570900035
35	3	11	distractor	19	Right	Left	LeftArrow	0	1.56998120003846	123	122.993500700104	123.497623000061	125.493458000012
36	3	12	target	18	Left	Left	LeftArrow	1	1.60819810000248	126.5	126.493435300072	127.002016400103	128.99337660009
37	4	1	filler	24	None	Left	LeftArrow	NaN	0.985949199995957	130	129.993489000015	130.503245200031	132.493170600035
38	4	2	filler	63	None	Right	RightArrow	NaN	2.15547729993705	133.5	133.493431400042	133.998879900086	135.999351900071
39	4	3	target	26	Left	Left	LeftArrow	1	1.60896169999614	137	136.99352160003	137.498687600018	139.494119400042
40	4	4	distractor	23	Right	Right	RightArrow	1	1.47481909999624	140.5	140.493266000063	141.001551800058	142.993453300092
41	4	5	distractor	59	Right			-1	0	144	143.993415300036	144.498286499991	146.497187700006
42	4	6	target	27	Left	Left	LeftArrow	1	1.89306230004877	147.5	147.507141500013	148.001072500017	149.993451300077
43	4	7	distractor	25	Right	Right	RightArrow	1	2.40470590000041	151	150.993539300049	151.502418300021	153.495138500002
44	4	8	target	28	Left	Left	LeftArrow	1	1.2630199000705	154.5	154.493517299998	155.000123000005	156.993075200007
45	4	9	distractor	64	Right	Right	RightArrow	1	1.8883450999856	158	157.99348090007	158.497581300093	160.493470500107
46	4	10	distractor	62	Right	Right	RightArrow	1	1.34638490003999	161.5	161.493053000071	162.0010243	163.993484700099
47	4	11	target	60	Left	Left	LeftArrow	1	1.74053640000056	165	164.993486399995	165.498472800013	167.493494700058
48	4	12	target	61	Left	Left	LeftArrow	1	1.05330460006371	168.5	168.49349760008	168.998317799997	170.993413400021
49	5	1	filler	32	None	Right	RightArrow	NaN	1.06642099993769	172	171.993169600028	172.498754100059	174.493409999995
50	5	2	filler	34	None	Left	LeftArrow	NaN	1.22833919990808	175.5	175.493886800017	176.004124400089	177.993346800096
51	5	3	target	31	Left	Left	LeftArrow	1	1.15615320007782	179	178.993473700015	179.498122600024	181.493440399994
52	5	4	distractor	65	Right	Right	RightArrow	1	1.26489290001336	182.5	182.493375100079	182.999372999999	184.99347300001
53	5	5	distractor	68	Right	Left	LeftArrow	0	0.544738300028257	186	185.993336300016	186.497791300062	188.493098500068
54	5	6	distractor	30	Right	Right	RightArrow	1	0.823792999959551	189.5	189.493180399993	189.999317900045	191.993288400001
55	5	7	target	70	Left	Right	RightArrow	0	2.5678365000058	193	192.993499600096	193.502088200068	195.497296300018
56	5	8	distractor	67	Right	Left	LeftArrow	0	1.77496640000027	196.5	196.493389900075	197.001947200042	198.993377300096
57	5	9	target	66	Left	Left	LeftArrow	1	2.25270950002596	200	199.99348970002	200.501008899999	202.493993000011
58	5	10	distractor	29	Right	Left	LeftArrow	0	1.66071749990806	203.5	203.49347700004	204.002368000103	205.993511700071
59	5	11	target	69	Left	Right	RightArrow	0	0.671314700040966	207	206.993504200014	207.500872700009	209.493273900007
60	5	12	target	33	Left	Right	RightArrow	0	1.11200880003162	210.5	210.494074800052	211.001790500013	212.993421200081
61	6	1	filler	38	None	Right	RightArrow	NaN	1.13819339999463	214	213.993032600032	214.502861000015	216.493345300085
62	6	2	filler	37	None	Left	LeftArrow	NaN	0.649942900054157	217.5	217.493357400061	218.003277300042	219.993464900064
63	6	3	distractor	75	Right	Left	LeftArrow	0	0.973310499917716	221	220.993392800097	221.501526400098	223.493144900072
64	6	4	target	36	Left	Right	RightArrow	0	0.635721600032412	224.5	224.493410800002	224.997404100024	226.99338660005
65	6	5	target	76	Left	Left	LeftArrow	1	0.69882090005558	228	227.993394000106	228.503981200047	230.493046000018
66	6	6	distractor	71	Right	Right	RightArrow	1	0.353263200027868	231.5	231.493390600081	231.998240999994	233.993547399994
67	6	7	target	74	Left	Left	LeftArrow	1	0.657517899991944	235	234.993481600075	235.499733300065	237.493513700087
68	6	8	target	73	Left	Right	RightArrow	0	0.745078100007959	238.5	238.493395600002	239.000023400062	240.993736000033
69	6	9	distractor	39	Right	Left	LeftArrow	0	0.506455200025812	242	241.993337600026	242.499987100018	244.493615400046
70	6	10	distractor	40	Right	Right	RightArrow	1	0.519168399972841	245.5	245.493091600016	245.999895500019	247.993442900013
71	6	11	target	35	Left	Left	LeftArrow	1	0.306816200027242	249	248.993436700082	249.49878610007	251.493499100092
72	6	12	distractor	72	Right	Left	LeftArrow	0	1.59691349999048	252.5	252.493359600077	252.999336200068	254.993460200028
