trial_id	block	trial	type	stim_id	cresp	resp	resp_raw	acc	rt	trial_start_time_expt	trial_start_time	stim_onset_time	stim_offset_time
1	1	1	filler	5	None			NaN	0	4	3.99346280001919	4.52061870001489	6.49986270000227
2	1	2	filler	25	None			NaN	0	7.5	7.51827699999558	8.00677020000876	9.99940450000577
3	1	3	target	4	Left	Left	LeftArrow	1	1.45504170001368	11	11.0119871000061	11.4987148999935	13.4934452000016
4	1	4	target	27	Left	Right	RightArrow	0	2.40171389997704	14.5	14.4934397000179	15.001645500015	16.999296199996
5	1	5	target	6	Left	Right	RightArrow	0	1.01588940000511	18	17.9934709999943	18.502599200001	20.4933544000087
6	1	6	distractor	48	Right	Right	RightArrow	1	0.968483900011051	21.5	21.4933638999937	22.0020330999978	23.9934480999946
7	1	7	distractor	46	Right	Left	LeftArrow	0	1.10166839999147	25	24.9931582999998	25.4964820000168	27.4933350000065
8	1	8	target	47	Left	Left	LeftArrow	1	0.842736200022046	28.5	28.4934461000084	29.0033357999928	30.9933659000089
9	1	9	distractor	26	Right	Right	RightArrow	1	1.20735769998282	32	31.9933077000023	32.497219300014	34.49392790001
10	1	10	distractor	67	Right	Right	RightArrow	1	1.32357509998837	35.5	35.4935893999937	35.9978334000043	37.9934151000052
11	1	11	distractor	68	Right	Right	RightArrow	1	0.956173200014746	39	38.9934164000151	39.4958840000036	41.4933216999925
12	1	12	target	69	Left	Left	LeftArrow	1	1.12146819999907	42.5	42.4934505000128	43.0000341999985	44.9934402999934
13	2	1	filler	30	None	Right	RightArrow	NaN	0.92118780000601	46	45.9933852000104	46.4983797000023	48.4930939000042
14	2	2	filler	49	None			NaN	0	49.5	49.4933642999968	49.9997125999944	51.9980875000183
15	2	3	distractor	71	Right	Right	RightArrow	1	2.13374019999173	53	53.0044961000094	53.4994125000085	55.4961183000123
16	2	4	distractor	8	Right	Left	LeftArrow	0	1.70128089998616	56.5	56.4933636999922	57.0004834000138	58.9933636999922
17	2	5	target	72	Left	Left	LeftArrow	1	1.44296899999608	60	59.9934028999996	60.4965035000059	62.4934360000188
18	2	6	target	7	Left	Left	LeftArrow	1	1.19682159999502	63.5	63.4934743999911	64.0008155000105	65.9933092000138
19	2	7	distractor	50	Right	Right	RightArrow	1	1.27033989998745	67	66.993444599997	67.4997904000047	69.4933088000107
20	2	8	target	9	Left	Right	RightArrow	0	1.61283630001708	70.5	70.4934103999985	70.9996779999929	72.9933879000018
21	2	9	target	51	Left	Right	RightArrow	0	0.831348900013836	74	73.9930808999925	74.5003026000049	76.4933374999964
22	2	10	distractor	29	Right	Right	RightArrow	1	0.864709700021194	77.5	77.4934251999948	77.9981034999946	79.9933443000191
23	2	11	distractor	70	Right			-1	0	81	80.9933813000098	81.5015837000101	83.495018400019
24	2	12	target	28	Left	Right	RightArrow	0	0.536994699999923	84.5	84.5042010000034	84.9983940999955	86.99340940002
25	3	1	filler	33	None			NaN	0	88	87.9934340000036	88.5000972000125	90.4990263000072
26	3	2	filler	54	None			NaN	0	91.5	91.5035143000132	91.9972761000099	93.9980935000058
27	3	3	distractor	75	Right	Right	RightArrow	1	2.10553910001181	95	95.0068458000023	95.5021092999959	97.4959670999961
28	3	4	distractor	10	Right	Right	RightArrow	1	0.739214799978072	98.5	98.4934409999987	99.0017220000154	100.993424600019
29	3	5	target	73	Left	Right	RightArrow	0	0.783788600005209	102	101.993002100004	102.501498500002	104.49298380001
30	3	6	target	12	Left	Right	RightArrow	0	0.16017550000106	105.5	105.493984700006	105.997828499996	107.993420400016
31	3	7	target	74	Left	Left	LeftArrow	1	2.06431350001367	109	108.993145899993	109.493421699997	111.497474700009
32	3	8	distractor	53	Right	Right	RightArrow	1	1.67543719999958	112.5	112.493095200014	113.001040800009	114.993440099992
33	3	9	distractor	32	Right	Right	RightArrow	1	1.26642339999671	116	115.993451599992	116.50093900002	118.493443999992
34	3	10	target	52	Left	Right	RightArrow	0	1.38828230000217	119.5	119.493349900004	119.996548099996	121.993184199993
35	3	11	target	31	Left	Left	LeftArrow	1	1.35496039999998	123	122.993393200013	123.500136599992	125.493462300015
36	3	12	distractor	11	Right	Right	RightArrow	1	0.634768199990503	126.5	126.4934374	126.999003800011	128.99314050001
37	4	1	filler	56	None	Right	RightArrow	NaN	0.904799600015394	130	129.993339700013	130.493341900001	132.493835800007
38	4	2	filler	55	None			NaN	0	133.5	133.493465100008	133.998358400015	135.99916420001
39	4	3	distractor	13	Right	Right	RightArrow	1	1.2130588	137	137.007204399997	137.497744599998	139.493019400019
40	4	4	distractor	14	Right	Left	LeftArrow	0	1.60320260000299	140.5	140.49333170001	140.997522399994	142.993385900016
41	4	5	distractor	78	Right	Right	RightArrow	1	1.24495190000744	144	143.993399400002	144.499254099996	146.493393300014
42	4	6	target	15	Left	Right	RightArrow	0	1.49608869999065	147.5	147.493382100016	148.000272600009	149.993318299996
43	4	7	target	76	Left	Right	RightArrow	0	0.727398199989693	151	150.99338520001	151.49688370002	153.493220300006
44	4	8	distractor	36	Right	Right	RightArrow	1	0.969847200001823	154.5	154.493465500011	154.998177500005	156.993367999996
45	4	9	target	77	Left	Right	RightArrow	0	0.737411799986148	158	157.993451300019	158.501316400012	160.493474000017
46	4	10	target	35	Left	Right	RightArrow	0	1.41416749998461	161.5	161.49338640002	161.999237500015	163.993449600006
47	4	11	distractor	57	Right	Right	RightArrow	1	0.951715200004401	165	164.993022900017	165.498017800011	167.493429399998
48	4	12	target	34	Left	Right	RightArrow	0	1.15102010002011	168.5	168.49337370001	168.999903599994	170.993460800004
49	5	1	filler	58	None			NaN	0	172	171.993397400016	172.499803899991	174.500274999999
50	5	2	filler	18	None			NaN	0	175.5	175.507335300004	176.001892800006	177.996440300019
51	5	3	target	60	Left	Left	LeftArrow	1	1.82962229999248	179	179.003978499997	179.500130900007	181.493313899991
52	5	4	target	16	Left	Right	RightArrow	0	0.998423199984245	182.5	182.493343000009	183.000387900014	184.993359400018
53	5	5	distractor	80	Right	Right	RightArrow	1	1.20598550001159	186	185.993388900009	186.502043799992	188.4932462
54	5	6	target	17	Left	Right	RightArrow	0	1.15366460001678	189.5	189.493273200002	189.997145100002	191.99303730001
55	5	7	distractor	38	Right	Right	RightArrow	1	0.602421000017785	193	192.993396000005	193.501432599995	195.493356899999
56	5	8	distractor	81	Right	Right	RightArrow	1	0.752072100003716	196.5	196.493364599999	197.001715899998	198.993131800002
57	5	9	target	37	Left	Right	RightArrow	0	0.486191300005885	200	199.99302330002	200.499650200014	202.493421599997
58	5	10	distractor	59	Right	Right	RightArrow	1	0.495162600011099	203.5	203.493153999996	203.997952200007	205.993341399997
59	5	11	target	39	Left	Right	RightArrow	0	0.510280699993018	207	206.993538300012	207.496102500008	209.493472100003
60	5	12	distractor	79	Right	Right	RightArrow	1	0.294154400005937	210.5	210.493442700012	210.993075200007	212.993427100009
61	6	1	filler	42	None	Right	RightArrow	NaN	0.778075100010028	214	213.99339410002	214.493377000006	216.493336100015
62	6	2	filler	83	None			NaN	0	217.5	217.493351700017	218.001056000008	219.99773100001
63	6	3	target	40	Left	Left	LeftArrow	1	1.53165849999641	221	221.008932700002	221.497028400016	223.493238299998
64	6	4	target	84	Left	Left	LeftArrow	1	0.77370950000477	224.5	224.493491700006	224.99588480001	226.993272299995
65	6	5	distractor	61	Right	Right	RightArrow	1	1.29446309999912	228	227.993475700001	228.496282900014	230.493373300007
66	6	6	target	82	Left	Right	RightArrow	0	1.20780909998575	231.5	231.493500700017	232.000969100016	233.993461800012
67	6	7	distractor	19	Right	Right	RightArrow	1	1.03935490001459	235	234.993263200013	235.501540600002	237.49343480001
68	6	8	distractor	41	Right	Right	RightArrow	1	1.57820109999739	238.5	238.493470000016	239.001472100004	240.993356599996
69	6	9	distractor	63	Right	Right	RightArrow	1	2.3729777999979	242	241.993536099995	242.500262400019	244.495327500015
70	6	10	distractor	21	Right	Right	RightArrow	1	1.33151769998949	245.5	245.493332800019	245.999718100007	247.993655600003
71	6	11	target	62	Left	Right	RightArrow	0	1.11615099999472	249	248.993218899996	249.496237200015	251.493411200005
72	6	12	target	20	Left	Right	RightArrow	0	1.14149829998496	252.5	252.493345700001	252.999199700018	254.993415400008
