trial_id	block	trial	type	stim_id	cresp	resp	resp_raw	acc	rt	trial_start_time_expt	trial_start_time	stim_onset_time	stim_offset_time
1	1	1	filler	41	None			NaN	0	4	3.99344880017452	4.49929350009188	6.49399010022171
2	1	2	filler	42	None			NaN	0	7.5	7.50659070000984	8.00024130009115	9.99430360016413
3	1	3	distractor	5	Right	Right	RightArrow	1	1.56219789991155	11	11.0073575000279	11.4996759002097	13.4934241001029
4	1	4	target	43	Left	Left	LeftArrow	1	1.27354840002954	14.5	14.4933768000919	14.9987121000886	16.9934317001607
5	1	5	target	7	Left	Left	LeftArrow	1	1.61848399997689	18	17.9934771000408	18.5017276001163	20.493394400226
6	1	6	distractor	6	Right	Right	RightArrow	1	1.14163219998591	21.5	21.4934057001956	22.000645800028	23.9930568002164
7	1	7	target	9	Left	Right	RightArrow	0	1.30722979991697	25	24.9930601001251	25.5005867001601	27.4935017002281
8	1	8	distractor	45	Right	Right	RightArrow	1	2.21801469987258	28.5	28.4933880001772	29.0022582001984	30.9967801000457
9	1	9	distractor	44	Right	Right	RightArrow	1	2.06111810007133	32	31.9934932000469	32.5004738001153	34.4971233000979
10	1	10	distractor	10	Right	Left	LeftArrow	0	1.97981419996358	35.5	35.4934504001867	36.0007537000347	37.9933096000459
11	1	11	target	46	Left	Left	LeftArrow	1	1.73104530014098	39	38.9934529000893	39.5024776000064	41.493419200182
12	1	12	target	8	Left	Right	RightArrow	0	1.15727680013515	42.5	42.4935366001446	42.9985662000254	44.9933384000324
13	2	1	filler	51	None			NaN	0	46	45.9939159001224	46.5001225001179	48.4985456001014
14	2	2	filler	12	None			NaN	0	49.5	49.5058485001791	49.998563000001	51.995388600044
15	2	3	distractor	14	Right	Right	RightArrow	1	0.898718199925497	53	53.0081001000945	53.4996601000894	55.4934378000908
16	2	4	distractor	47	Right	Right	RightArrow	1	1.39940529991873	56.5	56.4934041001834	57.0008703002241	58.9930561000947
17	2	5	distractor	49	Right	Right	RightArrow	1	1.00255240011029	60	59.9933812001254	60.5021909000352	62.4930463000201
18	2	6	target	52	Left	Left	LeftArrow	1	1.46545500005595	63.5	63.4933825000189	63.9975146001671	65.9934610000346
19	2	7	target	50	Left	Left	LeftArrow	1	1.34792019985616	67	66.9934739000164	67.5004808001686	69.4932073000818
20	2	8	target	48	Left	Left	LeftArrow	1	1.49828780000098	70.5	70.4935098001733	71.0022323001176	72.9934428001288
21	2	9	distractor	16	Right	Right	RightArrow	1	1.03159969998524	74	73.9934750001412	74.4985471002292	76.4936304001603
22	2	10	distractor	13	Right			-1	0	77.5	77.4934671001974	77.9971547001041	79.9986116001382
23	2	11	target	11	Left	Left	LeftArrow	1	1.79879809985869	81	81.003013700014	81.4972013002262	83.4933216001373
24	2	12	target	15	Left	Right	RightArrow	0	2.28125589992851	84.5	84.4934236002155	85.0006701000966	86.9971122001298
25	3	1	filler	17	None			NaN	0	88	87.9934500001837	88.5053700001445	90.4981735001784
26	3	2	filler	57	None			NaN	0	91.5	91.5061165001243	92.0031748001929	93.9994332001079
27	3	3	distractor	53	Right	Right	RightArrow	1	2.8730121999979	95	95.0033778001089	95.4988655000925	97.4971788001712
28	3	4	distractor	20	Right	Right	RightArrow	1	2.48769180011004	98.5	98.493438300211	99.0003599000629	100.999433300225
29	3	5	target	58	Left			-1	0	102	101.993474600138	102.498770300066	104.498632100178
30	3	6	distractor	56	Right	Right	RightArrow	1	1.76519310008734	105.5	105.506434300216	106.001590800006	107.993378900224
31	3	7	target	55	Left			-1	0	109	108.993425300112	109.498314500088	111.498571000062
32	3	8	distractor	21	Right			-1	0	112.5	112.505361500196	113.00143420021	114.994997400092
33	3	9	target	54	Left			-1	0	116	116.005755500169	116.502930600196	118.494966700207
34	3	10	target	22	Left			-1	0	119.5	119.505265100161	120.000744800083	121.99415370007
35	3	11	distractor	19	Right	Left	LeftArrow	0	1.70709129981697	123	123.005020900164	123.499173200224	125.493422600208
36	3	12	target	18	Left	Right	RightArrow	0	1.5078217999544	126.5	126.493488100125	126.998684900114	128.993489400018
37	4	1	filler	24	None			NaN	0	130	129.993411200121	130.502327000024	132.495794900227
38	4	2	filler	63	None			NaN	0	133.5	133.505891400157	133.998125300044	135.99654390011
39	4	3	target	26	Left	Left	LeftArrow	1	2.31928739999421	137	137.006276400061	137.500047300011	139.497617700137
40	4	4	distractor	23	Right	Right	RightArrow	1	1.60328459995799	140.5	140.49339710013	140.997537300223	142.993489300134
41	4	5	distractor	59	Right	Right	RightArrow	1	1.07022290001623	144	143.99342720001	144.500397399999	146.493462900165
42	4	6	target	27	Left	Left	LeftArrow	1	1.17440959997475	147.5	147.493251300184	147.998474700144	149.993475000141
43	4	7	distractor	25	Right	Right	RightArrow	1	0.921462700003758	151	150.993528500199	151.500212300103	153.493555500172
44	4	8	target	28	Left	Left	LeftArrow	1	1.1962852999568	154.5	154.493415200152	155.000056700082	156.993410100229
45	4	9	distractor	64	Right	Right	RightArrow	1	1.63681880012155	158	157.993351600133	158.502918200102	160.493441500003
46	4	10	distractor	62	Right	Left	LeftArrow	0	2.47140439995565	161.5	161.493378900224	162.001255700132	163.994136400055
47	4	11	target	60	Left	Left	LeftArrow	1	1.72767310007475	165	164.993351700017	165.501745100133	167.493438100209
48	4	12	target	61	Left	Left	LeftArrow	1	2.10717099998146	168.5	168.493063000031	169.001483200118	170.994173800107
49	5	1	filler	32	None			NaN	0	172	171.993402100168	172.497252300149	174.496080300072
50	5	2	filler	34	None			NaN	0	175.5	175.504083000124	176.00166300009	177.994345600018
51	5	3	target	31	Left	Left	LeftArrow	1	1.26148910005577	179	179.008692900185	179.495829400141	181.493364599999
52	5	4	distractor	65	Right	Right	RightArrow	1	0.889172099996358	182.5	182.492930900073	183.000299500069	184.993483100086
53	5	5	distractor	68	Right	Right	RightArrow	1	1.34856319986284	186	185.993427100126	186.501916200155	188.4938649002
54	5	6	distractor	30	Right	Right	RightArrow	1	1.61142279999331	189.5	189.493505100021	190.0038331002	191.993404900189
55	5	7	target	70	Left	Right	RightArrow	0	0.862107700202614	193	192.993347800104	193.497524000006	195.493048100034
56	5	8	distractor	67	Right			-1	0	196.5	196.493492000038	196.997273600195	198.998019300168
57	5	9	target	66	Left			-1	0	200	200.005646200152	200.501480500214	202.496104700025
58	5	10	distractor	29	Right	Right	RightArrow	1	2.53666569991037	203.5	203.505506800022	204.002017100109	205.999463000102
59	5	11	target	69	Left	Left	LeftArrow	1	1.8521960999351	207	206.99349670019	207.501723200083	209.493425799999
60	5	12	target	33	Left	Right	RightArrow	0	1.30706390016712	210.5	210.493386500049	210.998841200024	212.993411600124
61	6	1	filler	38	None			NaN	0	214	213.993388200179	214.499693900114	216.493782600155
62	6	2	filler	37	None			NaN	0	217.5	217.509693100117	218.001765800174	219.998730899999
63	6	3	distractor	75	Right	Right	RightArrow	1	1.52643810003065	221	221.007080800133	221.501031900058	223.493428600021
64	6	4	target	36	Left	Right	RightArrow	0	1.76079289987683	224.5	224.493925700197	225.000087800203	226.993449400179
65	6	5	target	76	Left			-1	0	228	227.993445300031	228.497411600081	230.497467600042
66	6	6	distractor	71	Right	Right	RightArrow	1	2.18653449998237	231.5	231.503462700173	231.997992600081	233.99595250003
67	6	7	target	74	Left	Left	LeftArrow	1	1.25961920013651	235	234.99347830005	235.497725700028	237.493073700229
68	6	8	target	73	Left	Left	LeftArrow	1	1.26159340003505	238.5	238.493063200032	239.000061400002	240.993483000202
69	6	9	distractor	39	Right	Right	RightArrow	1	0.911600799998268	242	241.993378200103	242.499192000134	244.493381700013
70	6	10	distractor	40	Right	Right	RightArrow	1	2.34902020008303	245.5	245.493462800048	246.002421800047	247.993660300039
71	6	11	target	35	Left	Left	LeftArrow	1	2.32350050006062	249	248.993494600058	249.499152600067	251.496790500125
72	6	12	distractor	72	Right	Right	RightArrow	1	1.68511629989371	252.5	252.493493700167	253.003298800206	254.99340890022
