trial_id	block	trial	type	stim_id	cresp	resp	resp_raw	acc	rt	trial_start_time_expt	trial_start_time	stim_onset_time	stim_offset_time
1	1	1	filler	48	None			NaN	0	4	3.99349889997393	4.50214890000643	6.49762869998813
2	1	2	filler	68	None			NaN	0	7.5	7.51901519997045	8.00586149998708	9.99536949995672
3	1	3	target	46	Left	Left	LeftArrow	1	1.52944680000655	11	11.0092997999745	11.4992025999818	13.4930032999837
4	1	4	distractor	47	Right	Left	LeftArrow	0	1.97536929999478	14.5	14.493351299956	14.9992781999754	16.9933681999682
5	1	5	distractor	26	Right	Right	RightArrow	1	2.12035880004987	18	17.9933517999598	18.5004223999567	20.4992153999628
6	1	6	distractor	27	Right	Left	LeftArrow	0	2.28291770000942	21.5	21.4934345000074	22.0005153999664	23.9984332000022
7	1	7	distractor	5	Right	Right	RightArrow	1	2.29439619998448	25	24.9934618999832	25.5031187999994	27.4973300999845
8	1	8	target	25	Left			-1	0	28.5	28.4933757999679	29.0036835999927	30.9992429999984
9	1	9	target	4	Left	Right	RightArrow	0	0.551161399984267	32	32.0096821999759	32.4993399999803	34.4929918999551
10	1	10	distractor	69	Right	Left	LeftArrow	0	0.342842300015036	35.5	35.4934754999704	36.0018208999536	37.9934689999791
11	1	11	target	6	Left			-1	0	39	38.9931782999774	39.4989084999543	41.4984157999861
12	1	12	target	67	Left	Left	LeftArrow	1	0.381162400008179	42.5	42.5032753999694	43.0020230999799	44.9933127000113
13	2	1	filler	9	None	Right	RightArrow	NaN	0.672841899970081	46	45.9933960000053	46.5021864000009	48.49324109999
14	2	2	filler	30	None			NaN	0	49.5	49.4933162999805	50.0018802999984	51.9994122000062
15	2	3	target	7	Left			-1	0	53	53.0089367000037	53.498560499982	55.4944717999897
16	2	4	target	28	Left			-1	0	56.5	56.5052515999996	56.9937572999625	58.9942799999844
17	2	5	distractor	71	Right	Right	RightArrow	1	1.48593259998597	60	60.0007224999717	60.4933421000023	62.4933547999826
18	2	6	target	29	Left	Right	RightArrow	0	1.40065510000568	63.5	63.493235300004	64.0027005999582	65.9934482999961
19	2	7	distractor	8	Right	Left	LeftArrow	0	1.49801590002608	67	66.9933807000052	67.4933445999632	69.4934356999584
20	2	8	distractor	72	Right	Right	RightArrow	1	0.196556700044312	70.5	70.493437099969	71.0004527999554	72.9934197000111
21	2	9	distractor	50	Right	Left	LeftArrow	0	0.262710099981632	74	73.9933607999701	74.500924699998	76.4933107999968
22	2	10	target	70	Left	Right	RightArrow	0	0.201187200029381	77.5	77.4938031999627	78.0031745999586	79.9933196000056
23	2	11	target	49	Left	Right	RightArrow	0	0.593325799971353	81	80.9933902999619	81.4995009999839	83.4933228999726
24	2	12	distractor	51	Right			-1	0	84.5	84.4930143000092	85.0016611999599	86.9944646999938
25	3	1	filler	31	None	Left	LeftArrow	NaN	0.376409199961927	88	88.0055074999691	88.50217230001	90.4931095999782
26	3	2	filler	10	None			NaN	0	91.5	91.4933593999594	92.0002132999944	93.9944809000008
27	3	3	distractor	53	Right	Right	RightArrow	1	2.09245910000755	95	95.0102078999626	95.5023377999896	97.4991333999787
28	3	4	target	12	Left			-1	0	98.5	98.4934421000071	99.0007183999987	100.997295999958
29	3	5	distractor	74	Right	Right	RightArrow	1	1.01091250003083	102	102.00418280001	102.49334679998	104.49335319997
30	3	6	target	11	Left	Left	LeftArrow	1	2.41981609998038	105.5	105.493933899968	106.001505499997	107.998566499969
31	3	7	target	75	Left			-1	0	109	108.99344250001	109.496578199964	111.49457619997
32	3	8	distractor	54	Right	Left	LeftArrow	0	0.316930399974808	112.5	112.505992299994	113.001209200011	114.993414599972
33	3	9	distractor	32	Right	Left	LeftArrow	0	2.53924369998276	116	115.993401499989	116.493316599983	118.497113199963
34	3	10	target	52	Left			-1	0	119.5	119.493388500006	119.993324599985	121.997652399994
35	3	11	target	33	Left	Right	RightArrow	0	0.326623300032225	123	123.008309500001	123.502970899979	125.493383899971
36	3	12	distractor	73	Right	Left	LeftArrow	0	0.507781499996781	126.5	126.493053899962	127.002029799973	128.993365300004
37	4	1	filler	13	None	Left	LeftArrow	NaN	1.02336649998324	130	129.993354599981	130.501298099989	132.493042199989
38	4	2	filler	14	None			NaN	0	133.5	133.493439399987	133.998548100004	135.999745399982
39	4	3	target	15	Left	Left	LeftArrow	1	0.320984899997711	137	137.004006300005	137.498961600009	139.493350600009
40	4	4	distractor	56	Right	Right	RightArrow	1	0.522625999990851	140.5	140.493362199981	141.004046699964	142.992854699958
41	4	5	distractor	76	Right	Left	LeftArrow	0	0.576885299989954	144	143.993317399989	144.498821799993	146.493436399964
42	4	6	target	55	Left	Right	RightArrow	0	0.74908429995412	147.5	147.493298499961	148.001842600002	149.99331250001
43	4	7	target	78	Left	Left	LeftArrow	1	1.02353439998114	151	150.993356899999	151.504110499984	153.493407399976
44	4	8	distractor	36	Right	Right	RightArrow	1	0.518746400019154	154.5	154.493325899995	155.004209499981	156.99341299996
45	4	9	target	77	Left	Right	RightArrow	0	2.62251750001451	158	157.993319200003	158.503992999962	160.496233199956
46	4	10	target	35	Left	Left	LeftArrow	1	2.53010049997829	161.5	161.493445699976	162.002352299984	163.999018699978
47	4	11	distractor	34	Right			-1	0	165	164.993429499969	165.504235600005	167.496483900002
48	4	12	distractor	57	Right			-1	0	168.5	168.504980299971	169.00079630001	170.998984700011
49	5	1	filler	58	None	Right	RightArrow	NaN	0.891146500012837	172	172.009878599958	172.500628499954	174.493424799992
50	5	2	filler	81	None	Left	LeftArrow	NaN	0.432903899985831	175.5	175.493363099988	176.00152619998	177.993379599997
51	5	3	target	60	Left	Left	LeftArrow	1	2.35808580002049	179	178.993035299995	179.502510899969	181.496586899972
52	5	4	target	80	Left	Right	RightArrow	0	0.890666700026486	182.5	182.493343799957	182.998275999969	184.994172799983
53	5	5	distractor	18	Right	Left	LeftArrow	0	1.57716550002806	186	185.993392499979	186.500920599967	188.493373500009
54	5	6	distractor	16	Right	Right	RightArrow	1	1.75800189998699	189.5	189.493027299992	190.004162399971	191.993411600008
55	5	7	distractor	39	Right	Left	LeftArrow	0	1.2692631999962	193	192.993370599987	193.50343469996	195.493335200008
56	5	8	target	17	Left			-1	0	196.5	196.493062899972	196.999052800005	198.993723199994
57	5	9	target	38	Left			-1	0	200	200.004341899999	200.503191299969	202.493928399985
58	5	10	distractor	59	Right	Right	RightArrow	1	0.942581999988761	203.5	203.508376199985	204.004048199975	205.993348399992
59	5	11	target	37	Left	Left	LeftArrow	1	0.372818399977405	207	206.993356699997	207.501282199984	209.493436499964
60	5	12	distractor	79	Right	Right	RightArrow	1	0.751389900047798	210.5	210.493353399972	211.001936199958	212.993352799967
61	6	1	filler	21	None	Left	LeftArrow	NaN	0.689854700001888	214	213.993097300001	214.502464999969	216.493487200001
62	6	2	filler	40	None	Right	RightArrow	NaN	0.597638399980497	217.5	217.493518000003	218.002812099992	219.993501199991
63	6	3	target	20	Left	Right	RightArrow	0	0.49829590000445	221	220.993314299965	221.503541399958	223.493404400011
64	6	4	distractor	62	Right	Left	LeftArrow	0	2.51511899998877	224.5	224.493347199983	225.002153699985	226.998792300001
65	6	5	distractor	82	Right	Left	LeftArrow	0	0.0448241000412963	228	227.993320699956	228.501761799969	230.493375699967
66	6	6	target	61	Left			-1	0	231.5	231.493327500008	232.001490499999	233.995608099969
67	6	7	target	83	Left			-1	0	235	235.008157200005	235.4933495	237.493637599982
68	6	8	target	63	Left	Right	RightArrow	0	1.01857999997446	238.5	238.506020499975	238.993386699993	240.993402399996
69	6	9	target	84	Left	Left	LeftArrow	1	0.32433019997552	242	241.993487200001	242.50245249999	244.493458199955
70	6	10	distractor	41	Right			-1	0	245.5	245.493360999972	245.99335309997	247.994519700005
71	6	11	distractor	42	Right	Right	RightArrow	1	0.492838400008623	249	249.007897100004	249.50536109996	251.493374999962
72	6	12	distractor	19	Right	Left	LeftArrow	0	1.25057189998915	252.5	252.493514399976	253.000549999997	254.99371509999
