trial_id	block	trial	type	stim_id	cresp	resp	resp_raw	acc	rt	trial_start_time_expt	trial_start_time	stim_onset_time	stim_offset_time
1	1	1	filler	41	None			NaN	0	4	3.99339829999371	4.50510139999096	6.4938867999881
2	1	2	filler	42	None			NaN	0	7.5	7.50823839998338	8.00069369998528	9.99741149999318
3	1	3	distractor	5	Right	Right	RightArrow	1	1.29147309999098	11	11.0105764000036	11.5012252999877	13.4934241999872
4	1	4	target	43	Left	Left	LeftArrow	1	1.1691218999913	14.5	14.4934661999869	15.0035891000007	16.9934037999774
5	1	5	target	7	Left	Left	LeftArrow	1	1.36941339998157	18	17.9934379999759	18.503091599996	20.4933923999779
6	1	6	distractor	6	Right	Right	RightArrow	1	1.35642709999229	21.5	21.4934271999809	21.9968456999923	23.9933361999865
7	1	7	target	9	Left	Left	LeftArrow	1	1.25316999998176	25	24.9934083999833	25.501868899999	27.4933854999836
8	1	8	distractor	45	Right	Right	RightArrow	1	0.6131211000029	28.5	28.4934208999912	29.0012892999803	30.9934715999989
9	1	9	distractor	44	Right	Right	RightArrow	1	1.98081529999035	32	31.9934480999946	32.497763899999	34.4934283999901
10	1	10	distractor	10	Right	Right	RightArrow	1	1.03749250000692	35.5	35.4935799999803	36.0024448999902	37.9934739999881
11	1	11	target	46	Left	Left	LeftArrow	1	0.960622100014007	39	38.9934462999809	39.5043999999762	41.4935802999826
12	1	12	target	8	Left	Left	LeftArrow	1	1.05736089998391	42.5	42.493459099991	43.0019345000037	44.9933432999824
13	2	1	filler	51	None			NaN	0	46	45.994114799978	46.50479549999	48.4978265999816
14	2	2	filler	12	None			NaN	0	49.5	49.5110555999854	50.001134399994	52.0001208999893
15	2	3	distractor	14	Right	Right	RightArrow	1	1.67564070000662	53	53.0108166999999	53.5019013999845	55.4936984999804
16	2	4	distractor	47	Right	Left	LeftArrow	0	1.45936210002401	56.5	56.4934490000014	56.9984454999794	58.9934323999914
17	2	5	distractor	49	Right			-1	0	60	59.9934231999796	60.5021959999867	62.4942924999923
18	2	6	target	52	Left			-1	0	63.5	63.5056046999816	63.9934549999889	65.9955511000007
19	2	7	target	50	Left	Left	LeftArrow	1	1.59313680001651	67	67.010215199989	67.5013310999784	69.4934267999779
20	2	8	target	48	Left	Left	LeftArrow	1	1.12956440000562	70.5	70.4934370999981	71.0007792999968	72.9933550999849
21	2	9	distractor	16	Right	Right	RightArrow	1	1.78015840001171	74	73.9930958999903	74.5017647999921	76.4935068999766
22	2	10	distractor	13	Right	Right	RightArrow	1	1.56245709999348	77.5	77.4934015999897	77.9978047999903	79.9934115999786
23	2	11	target	11	Left	Left	LeftArrow	1	1.35780189998331	81	80.9933807999769	81.4964487999969	83.4933854999836
24	2	12	target	15	Left	Left	LeftArrow	1	1.68264889999409	84.5	84.4933917000017	85.0002182000026	86.9934401999926
25	3	1	filler	17	None			NaN	0	88	87.9933435999847	88.5039505999885	90.4989639999985
26	3	2	filler	57	None			NaN	0	91.5	91.5060751999845	92.0023507000005	93.9972129999951
27	3	3	distractor	53	Right	Right	RightArrow	1	1.28156329999911	95	95.0046866999764	95.5015637000033	97.4930276999949
28	3	4	distractor	20	Right	Right	RightArrow	1	1.10025009998935	98.5	98.4933686000004	98.9975418999966	100.993459899997
29	3	5	target	58	Left	Right	RightArrow	0	1.90519089999725	102	101.993479099998	102.502100699989	104.493437600002
30	3	6	distractor	56	Right			-1	0	105.5	105.493481599988	106.001347199985	107.995419499988
31	3	7	target	55	Left	Left	LeftArrow	1	1.36216299998341	109	109.006529099977	109.503497199999	111.493401099986
32	3	8	distractor	21	Right	Right	RightArrow	1	1.82933279999997	112.5	112.4934641	113.001285599981	114.993510699976
33	3	9	target	54	Left	Right	RightArrow	0	1.87678550000419	116	115.993434999982	116.501636799978	118.493299099995
34	3	10	target	22	Left	Left	LeftArrow	1	1.30497769999783	119.5	119.493572199979	120.000386999978	121.993424099986
35	3	11	distractor	19	Right	Right	RightArrow	1	1.77216849999968	123	122.993403999979	123.497416700004	125.493622699985
36	3	12	target	18	Left	Left	LeftArrow	1	2.15808219998144	126.5	126.493457799981	126.9992661	129.000131399982
37	4	1	filler	24	None			NaN	0	130	129.993369399977	130.500707799976	132.499126099981
38	4	2	filler	63	None			NaN	0	133.5	133.510446599976	134.000789599988	135.997011999978
39	4	3	target	26	Left	Left	LeftArrow	1	0.995770900015486	137	137.005955300003	137.501804799977	139.493486799998
40	4	4	distractor	23	Right	Right	RightArrow	1	0.87201439999626	140.5	140.493332599988	140.997297299997	142.993497399992
41	4	5	distractor	59	Right	Left	LeftArrow	0	1.81443249998847	144	143.994271999982	144.499910599989	146.493345900002
42	4	6	target	27	Left	Right	RightArrow	0	1.86623859999236	147.5	147.493491399975	147.997544499987	149.993467199994
43	4	7	distractor	25	Right	Right	RightArrow	1	1.38405379999313	151	150.993607799988	151.502185099991	153.493493999995
44	4	8	target	28	Left	Left	LeftArrow	1	1.09033639999689	154.5	154.493403499975	154.999084799987	156.993470999994
45	4	9	distractor	64	Right	Right	RightArrow	1	0.906392999982927	158	157.993457399978	158.503095499997	160.493479199999
46	4	10	distractor	62	Right	Right	RightArrow	1	1.50135539998882	161.5	161.493442599982	162.001040000003	163.993418799975
47	4	11	target	60	Left	Left	LeftArrow	1	1.20759929998894	165	164.993371699995	165.500670999987	167.493467599998
48	4	12	target	61	Left	Left	LeftArrow	1	1.15581359999487	168.5	168.493384000001	168.998353000003	170.993488899985
49	5	1	filler	32	None			NaN	0	172	171.9933456	172.501313999994	174.494561300002
50	5	2	filler	34	None			NaN	0	175.5	175.507813599979	176.000531999976	177.997413199977
51	5	3	target	31	Left	Left	LeftArrow	1	1.21925590001047	179	179.00498529998	179.501729899988	181.493439999991
52	5	4	distractor	65	Right	Right	RightArrow	1	0.853353299986338	182.5	182.493380300002	182.997950699995	184.993486899999
53	5	5	distractor	68	Right	Right	RightArrow	1	1.39958880000631	186	185.993393799989	186.500551499979	188.493445599976
54	5	6	distractor	30	Right	Right	RightArrow	1	0.911458299990045	189.5	189.493466799991	190.001956399996	191.993397999991
55	5	7	target	70	Left	Left	LeftArrow	1	0.948765400011325	193	192.993391199998	193.502607799979	195.493483999977
56	5	8	distractor	67	Right	Right	RightArrow	1	0.911758900008863	196.5	196.493420299987	197.001277899981	198.993405799993
57	5	9	target	66	Left	Left	LeftArrow	1	1.73873710000771	200	199.993756999989	200.500067099987	202.493625499977
58	5	10	distractor	29	Right	Right	RightArrow	1	0.941484399983892	203.5	203.493462999992	204.0031762	205.993451699993
59	5	11	target	69	Left	Left	LeftArrow	1	1.42884000000777	207	206.99350869999	207.502963899984	209.493372299999
60	5	12	target	33	Left	Right	RightArrow	0	1.0895408000215	210.5	210.493483999977	211.003398499975	212.993729999987
61	6	1	filler	38	None			NaN	0	214	213.993343499984	214.505355100002	216.497228099994
62	6	2	filler	37	None			NaN	0	217.5	217.508116599987	218.00002919999	219.997513499984
63	6	3	distractor	75	Right	Right	RightArrow	1	1.24310260001221	221	221.007685399993	221.499214299984	223.493950799981
64	6	4	target	36	Left	Left	LeftArrow	1	1.32005239999853	224.5	224.493542299984	225.001577499992	226.993391600001
65	6	5	target	76	Left	Left	LeftArrow	1	1.63795269999537	228	227.993454699987	228.502094299998	230.493450199981
66	6	6	distractor	71	Right	Right	RightArrow	1	0.978641900001094	231.5	231.493454999989	231.998439699993	233.993349199998
67	6	7	target	74	Left	Left	LeftArrow	1	1.14531859999988	235	234.993416499987	235.498999599979	237.493359899992
68	6	8	target	73	Left	Left	LeftArrow	1	1.15430759999435	238.5	238.493418400001	238.999222699989	240.993332199985
69	6	9	distractor	39	Right	Left	LeftArrow	0	1.32423699999345	242	241.993349299999	242.499780199985	244.493453199975
70	6	10	distractor	40	Right	Right	RightArrow	1	1.21809109998867	245.5	245.493537599978	246.002606800001	247.993430999981
71	6	11	target	35	Left	Right	RightArrow	0	1.69757119999849	249	248.993433600001	249.501199099992	251.493412899988
72	6	12	distractor	72	Right	Right	RightArrow	1	1.45845079998253	252.5	252.493450699985	253.0003363	254.993424499989
