trial_id	block	trial	type	stim_id	cresp	resp	resp_raw	acc	rt	trial_start_time_expt	trial_start_time	stim_onset_time	stim_offset_time
1	1	1	filler	48	None			NaN	0	4	3.99339919991326	4.50261009996757	6.49846709996928
2	1	2	filler	68	None			NaN	0	7.5	7.51364889997058	8.00207609997597	9.99778380000498
3	1	3	target	46	Left	Left	LeftArrow	1	1.38020220003091	11	11.010602699942	11.5036006999435	13.4937303999905
4	1	4	distractor	47	Right	Right	RightArrow	1	2.06844619999174	14.5	14.4934079999803	14.9979355999967	16.9972596999723
5	1	5	distractor	26	Right	Left	LeftArrow	0	1.74264040007256	18	17.9934110000031	18.5044229999185	20.4934471999295
6	1	6	distractor	27	Right	Left	LeftArrow	0	1.68558679998387	21.5	21.4933755999664	22.0022120999638	23.9929136999417
7	1	7	distractor	5	Right	Right	RightArrow	1	1.13033620000351	25	24.9934198999545	25.5014043999836	27.4933874999406
8	1	8	target	25	Left	Left	LeftArrow	1	0.277291200007312	28.5	28.4934340999462	29.0047469999408	30.9934321999317
9	1	9	target	4	Left	Left	LeftArrow	1	1.23228240001481	32	31.9934028999414	32.4994541999185	34.4934731000103
10	1	10	distractor	69	Right	Right	RightArrow	1	1.69853749999311	35.5	35.4935059999116	36.0035462999949	37.9934699999867
11	1	11	target	6	Left	Left	LeftArrow	1	0.757360999938101	39	38.9934890998993	39.5033618999878	41.492976199952
12	1	12	target	67	Left	Left	LeftArrow	1	1.96268500003498	42.5	42.4934758999152	43.0034501999617	44.9933837999124
13	2	1	filler	9	None	Right	RightArrow	NaN	1.98904690006748	46	45.9934010999277	46.5013316998957	48.4949995999923
14	2	2	filler	30	None			NaN	0	49.5	49.4935578999575	50.0020203999011	51.9976248999592
15	2	3	target	7	Left	Left	LeftArrow	1	1.53605849994346	53	53.0084575999063	53.4989724999759	55.4933678999078
16	2	4	target	28	Left	Right	RightArrow	0	1.33563849993516	56.5	56.4934791999403	57.0018817000091	58.9934687999776
17	2	5	distractor	71	Right	Left	LeftArrow	0	1.15403000009246	60	59.9933936999878	60.5034287999151	62.493476399919
18	2	6	target	29	Left	Right	RightArrow	0	1.05026930000167	63.5	63.4935022999998	64.0022130999714	65.993393599987
19	2	7	distractor	8	Right	Left	LeftArrow	0	0.646009200019762	67	66.9934023999376	67.50195169996	69.4933684999123
20	2	8	distractor	72	Right	Left	LeftArrow	0	0.307858099928126	70.5	70.4933814000105	70.999204599997	72.9934792999411
21	2	9	distractor	50	Right	Right	RightArrow	1	0.0199806999880821	74	73.9934967999579	74.4992968000006	76.4934863999952
22	2	10	target	70	Left	Right	RightArrow	0	0.540112799964845	77.5	77.4932225999655	78.002303199959	79.9934262000024
23	2	11	target	49	Left	Right	RightArrow	0	1.87423479999416	81	80.993403499946	81.5034365999745	83.4933498000028
24	2	12	distractor	51	Right	Left	LeftArrow	0	2.64950500009581	84.5	84.4937642998993	85.0040095999138	86.9948830999201
25	3	1	filler	31	None			NaN	0	88	87.9934188999468	88.5031510998961	90.4958804999478
26	3	2	filler	10	None			NaN	0	91.5	91.5073253998999	92.0015734999906	93.9957709999289
27	3	3	distractor	53	Right	Right	RightArrow	1	1.21986209996976	95	95.0088710999116	95.5017065999564	97.4934274000116
28	3	4	target	12	Left	Left	LeftArrow	1	1.58873740001582	98.5	98.4934280999005	99.0023631999502	100.993067299947
29	3	5	distractor	74	Right	Right	RightArrow	1	1.49340410006698	102	101.993374399957	102.503675799933	104.493456700002
30	3	6	target	11	Left	Left	LeftArrow	1	2.41757589997724	105.5	105.493156599929	106.002683899947	107.996928699897
31	3	7	target	75	Left	Right	RightArrow	0	1.28167469997425	109	108.993480999954	109.502523300005	111.49340529996
32	3	8	distractor	54	Right	Right	RightArrow	1	1.67294059996493	112.5	112.493461799924	113.002179399948	114.993439599988
33	3	9	distractor	32	Right	Neither	DownArrow	0	0.773592000012286	116	115.993581399904	116.50322199997	118.493392599979
34	3	10	target	52	Left	Right	RightArrow	0	1.8525771999266	119.5	119.493986999965	120.001667600009	121.993201699923
35	3	11	target	33	Left			-1	0	123	122.993348399992	123.500580199994	125.499525499996
36	3	12	distractor	73	Right	Right	RightArrow	1	1.53133210004307	126.5	126.504623699933	126.999852199922	128.993153399904
37	4	1	filler	13	None			NaN	0	130	129.993355799932	130.501323399949	132.500003199908
38	4	2	filler	14	None			NaN	0	133.5	133.505292899907	134.001464799978	135.997673099977
39	4	3	target	15	Left	Left	LeftArrow	1	1.27840750000905	137	137.003914200002	137.501113199978	139.493410499999
40	4	4	distractor	56	Right	Right	RightArrow	1	1.65950960002374	140.5	140.493384299916	141.000558399945	142.993396400008
41	4	5	distractor	76	Right	Right	RightArrow	1	2.89629840000998	144	143.993443899904	144.5008867	146.496691799955
42	4	6	target	55	Left	Left	LeftArrow	1	2.01343119994272	147.5	147.493384299916	148.003563500009	149.997462800005
43	4	7	target	78	Left	Right	RightArrow	0	1.54144130006898	151	150.993002099916	151.50410339993	153.4935197999
44	4	8	distractor	36	Right	Left	LeftArrow	0	0.87268699996639	154.5	154.493392599979	155.001646299963	156.993355599931
45	4	9	target	77	Left	Left	LeftArrow	1	0.836968500050716	158	157.993458999903	158.499413699959	160.493436799967
46	4	10	target	35	Left	Left	LeftArrow	1	1.1179038999835	161.5	161.493369099917	162.003876399947	163.993467899971
47	4	11	distractor	34	Right	Left	LeftArrow	0	1.10443459998351	165	164.993403399945	165.500220899936	167.493076799903
48	4	12	distractor	57	Right	Right	RightArrow	1	0.671180400066078	168.5	168.493214899907	169.00306519994	170.993505399907
49	5	1	filler	58	None	Right	RightArrow	NaN	0.605699300067499	172	171.9934126999	172.503917099908	174.493357799947
50	5	2	filler	81	None			NaN	0	175.5	175.493411800009	176.001657199929	177.998567399918
51	5	3	target	60	Left	Left	LeftArrow	1	0.949764600023627	179	179.008257599897	179.499073699932	181.493476899923
52	5	4	target	80	Left	Left	LeftArrow	1	1.61438139993697	182.5	182.493389399955	182.998378699995	184.993398199906
53	5	5	distractor	18	Right	Right	RightArrow	1	1.60998940002173	186	185.993396800011	186.501947899931	188.493539899937
54	5	6	distractor	16	Right			-1	0	189.5	189.49338349991	190.003542399965	191.997973899939
55	5	7	distractor	39	Right	Right	RightArrow	1	1.40024009998888	193	193.005786199938	193.504309899989	195.493028299999
56	5	8	target	17	Left	Left	LeftArrow	1	1.58697150007356	196.5	196.493376299972	197.000829199911	198.99343199993
57	5	9	target	38	Left	Right	RightArrow	0	1.15790989995003	200	199.993504899903	200.499371499987	202.493123299908
58	5	10	distractor	59	Right	Right	RightArrow	1	0.565158299985342	203.5	203.493359799962	204.002573699923	205.993391599972
59	5	11	target	37	Left	Right	RightArrow	0	0.8692942999769	207	206.993371999939	207.498614099924	209.493478799937
60	5	12	distractor	79	Right	Right	RightArrow	1	0.499398800078779	210.5	210.493468399975	211.00147249992	212.993410099996
61	6	1	filler	21	None			NaN	0	214	213.993393399986	214.499429299962	216.498427199898
62	6	2	filler	40	None			NaN	0	217.5	217.505664899945	218.001761799911	219.995035899919
63	6	3	target	20	Left	Right	RightArrow	0	1.91190399997868	221	221.003739899956	221.499829299981	223.493400499923
64	6	4	distractor	62	Right	Left	LeftArrow	0	1.41635529999621	224.5	224.4933821999	225.002782700001	226.993374899961
65	6	5	distractor	82	Right	Right	RightArrow	1	0.776099000009708	228	227.993358599953	228.49902019999	230.493411600008
66	6	6	target	61	Left	Left	LeftArrow	1	0.563357300008647	231.5	231.49326899997	232.001728000003	233.99335549993
67	6	7	target	83	Left	Right	RightArrow	0	0.740421799942851	235	234.993391899974	235.501772599993	237.493330499972
68	6	8	target	63	Left	Neither	DownArrow	0	0.944639900000766	238.5	238.493069699965	238.998061099905	240.993439199985
69	6	9	target	84	Left	Left	LeftArrow	1	1.01380359998439	242	241.993487700005	242.5011925	244.493482499965
70	6	10	distractor	41	Right	Right	RightArrow	1	0.955548899946734	245.5	245.493395099998	246.003680899972	247.993393499986
71	6	11	distractor	42	Right	Right	RightArrow	1	0.497092299978249	249	248.993398899911	249.502141000004	251.493065699935
72	6	12	distractor	19	Right	Right	RightArrow	1	1.18299599993043	252.5	252.49346649996	252.993377599982	254.993412000011
