trial_id	block	trial	type	stim_id	cresp	resp	resp_raw	acc	rt	trial_start_time_expt	trial_start_time	stim_onset_time	stim_offset_time
1	1	1	filler	5	None			NaN	0	4	3.99399670003913	4.51705850008875	6.49664300004952
2	1	2	filler	25	None			NaN	0	7.5	7.51814629998989	8.00243090000004	9.99719900009222
3	1	3	target	4	Left	Left	LeftArrow	1	1.05875199986622	11	11.007864800049	11.4972517001443	13.4934799000621
4	1	4	target	27	Left	Left	LeftArrow	1	1.23751090001315	14.5	14.4932504000608	15.0010438000318	16.9930961001664
5	1	5	target	6	Left			-1	0	18	17.9935046001337	18.4964075000025	20.4958757001441
6	1	6	distractor	48	Right	Right	RightArrow	1	1.48772490001284	21.5	21.505757200066	21.9970011999831	23.9934408001136
7	1	7	distractor	46	Right	Right	RightArrow	1	2.50871490011923	25	24.9934028000571	25.5006866999902	27.498826000141
8	1	8	target	47	Left	Right	RightArrow	0	2.45141219999641	28.5	28.4933859000448	29.000693500042	30.9939747001044
9	1	9	distractor	26	Right	Left	LeftArrow	0	0.943270200164989	32	31.9934873001184	32.4963283999823	34.4936087999959
10	1	10	distractor	67	Right	Right	RightArrow	1	1.19072569999844	35.5	35.4937718999572	35.999618700007	37.9934064000845
11	1	11	distractor	68	Right	Left	LeftArrow	0	0.988070799969137	39	38.9933764999732	39.4963832001667	41.4934078000952
12	1	12	target	69	Left	Left	LeftArrow	1	1.48091119993478	42.5	42.4933142999653	43.0003063001204	44.9933430999517
13	2	1	filler	30	None			NaN	0	46	45.993425300112	46.5009775999933	48.4996036000084
14	2	2	filler	49	None			NaN	0	49.5	49.5049872000236	49.9994043000042	51.9949042000808
15	2	3	distractor	71	Right	Right	RightArrow	1	1.97470019990578	53	53.0060778001789	53.4965960001573	55.4934582000133
16	2	4	distractor	8	Right	Left	LeftArrow	0	1.50926880002953	56.5	56.4933979001362	56.9973832999822	58.9936140000354
17	2	5	target	72	Left			-1	0	60	59.9934765000362	60.4966794000939	62.4978380999528
18	2	6	target	7	Left	Right	RightArrow	0	1.32525710016489	63.5	63.5059271999635	63.9966019999702	65.9934630000498
19	2	7	distractor	50	Right	Left	LeftArrow	0	1.19300059997477	67	66.9933842001483	67.5002783001401	69.4930718000978
20	2	8	target	9	Left	Right	RightArrow	0	1.33124070009217	70.5	70.493523000041	70.9995381000917	72.9935155999847
21	2	9	target	51	Left	Left	LeftArrow	1	2.04333149990998	74	73.9933857000433	74.4986455000471	76.4969866001047
22	2	10	distractor	29	Right	Right	RightArrow	1	2.06429040012881	77.5	77.4931338999886	77.9964562000241	79.9975972999819
23	2	11	distractor	70	Right	Right	RightArrow	1	0.852701500058174	81	80.9934519999661	81.4998882999644	83.4934624000452
24	2	12	target	28	Left			-1	0	84.5	84.4934775000438	84.995890500024	86.9965382001828
25	3	1	filler	33	None			NaN	0	88	88.0030278000049	88.4974929001182	90.4952677001711
26	3	2	filler	54	None			NaN	0	91.5	91.5072262999602	91.9970037001185	93.9972097000573
27	3	3	distractor	75	Right	Right	RightArrow	1	1.97536989999935	95	95.0078508001752	95.4970790001098	97.4933782001026
28	3	4	distractor	10	Right	Left	LeftArrow	0	1.89957519993186	98.5	98.4934492001776	99.000769900158	100.99346040003
29	3	5	target	73	Left	Right	RightArrow	0	1.49530020006932	102	101.993472600123	102.495857100002	104.493078900035
30	3	6	target	12	Left	Left	LeftArrow	1	1.76079039997421	105.5	105.493043299997	105.996231800178	107.993501899997
31	3	7	target	74	Left	Right	RightArrow	0	2.02001220011152	109	108.993533500005	109.501470800024	111.495517899981
32	3	8	distractor	53	Right	Left	LeftArrow	0	1.76457909983583	112.5	112.49344560015	112.996546100127	114.993428000016
33	3	9	distractor	32	Right	Left	LeftArrow	0	1.48838490014896	116	115.993443700019	116.498574499972	118.49343989999
34	3	10	target	52	Left	Right	RightArrow	0	1.2848322999198	119.5	119.493468299974	119.998147000093	121.993478100048
35	3	11	target	31	Left	Right	RightArrow	0	2.18060859991238	123	122.993420799961	123.496083700098	125.494569400093
36	3	12	distractor	11	Right	Left	LeftArrow	0	0.823815699899569	126.5	126.49303410016	127.000427700114	128.993461400038
37	4	1	filler	56	None			NaN	0	130	129.993471200112	130.49990350008	132.495032400126
38	4	2	filler	55	None			NaN	0	133.5	133.505029699998	133.997288800078	135.995944099966
39	4	3	distractor	13	Right	Right	RightArrow	1	1.32141039986163	137	137.008053200087	137.496878100093	139.493489200016
40	4	4	distractor	14	Right	Right	RightArrow	1	1.81169479992241	140.5	140.493043499999	141.000141200144	142.993533700006
41	4	5	distractor	78	Right	Right	RightArrow	1	1.09411700000055	144	143.993495400064	144.500024900073	146.493931500008
42	4	6	target	15	Left	Left	LeftArrow	1	1.84516229992732	147.5	147.493476300035	147.997072600061	149.9934237001
43	4	7	target	76	Left	Right	RightArrow	0	2.23804349987768	151	150.993461000035	151.496852100128	153.495352400001
44	4	8	distractor	36	Right	Left	LeftArrow	0	1.56609539990313	154.5	154.493409099989	154.996229000157	156.993460600032
45	4	9	target	77	Left	Right	RightArrow	0	0.896257000043988	158	157.993349299999	158.498143600067	160.493081000168
46	4	10	target	35	Left	Left	LeftArrow	1	2.28447639988735	161.5	161.493048200151	161.996015000157	163.998457000125
47	4	11	distractor	57	Right	Right	RightArrow	1	1.3805893000681	165	164.993340300163	165.499010300031	167.493468600092
48	4	12	target	34	Left	Left	LeftArrow	1	1.22167440014891	168.5	168.493408699986	168.99739699997	170.99347880017
49	5	1	filler	58	None			NaN	0	172	171.993106800131	172.499606800033	174.496617699973
50	5	2	filler	18	None			NaN	0	175.5	175.505983300041	176.000935400138	177.99590920005
51	5	3	target	60	Left	Left	LeftArrow	1	0.970059999963269	179	179.006966700079	179.497164600063	181.492885699961
52	5	4	target	16	Left	Left	LeftArrow	1	0.924132699845359	182.5	182.493548600003	182.996379600139	184.993413500022
53	5	5	distractor	80	Right	Right	RightArrow	1	1.3031794000417	186	185.993405699963	186.500235700049	188.493452700088
54	5	6	target	17	Left	Left	LeftArrow	1	1.3286224999465	189.5	189.493323600153	189.996901100036	191.993498499971
55	5	7	distractor	38	Right	Right	RightArrow	1	1.27825729991309	193	192.993354400154	193.497163400054	195.49310750002
56	5	8	distractor	81	Right	Right	RightArrow	1	1.24131780001335	196.5	196.493046000134	196.999573800014	198.993389500072
57	5	9	target	37	Left	Left	LeftArrow	1	1.67171339993365	200	199.993407699978	200.496322000166	202.493470899994
58	5	10	distractor	59	Right	Left	LeftArrow	0	0.972365799825639	203.5	203.493477200158	204.000418000156	205.993462100159
59	5	11	target	39	Left	Right	RightArrow	0	1.72057849983685	207	206.993474900024	207.500541400164	209.493478100048
60	5	12	distractor	79	Right	Left	LeftArrow	0	1.40793849993497	210.5	210.49346090015	211.000774600077	212.993498000083
61	6	1	filler	42	None			NaN	0	214	213.99350800016	214.499047399964	216.494494300103
62	6	2	filler	83	None			NaN	0	217.5	217.503542799968	218.001374199986	219.994044900173
63	6	3	target	40	Left	Left	LeftArrow	1	2.16364699997939	221	221.006939399987	221.498299699975	223.497828700114
64	6	4	target	84	Left	Left	LeftArrow	1	1.52494010003284	224.5	224.493433100171	224.996065000072	226.993149999995
65	6	5	distractor	61	Right	Right	RightArrow	1	2.14349819999188	228	227.993430000031	228.500867899973	230.494140600087
66	6	6	target	82	Left	Left	LeftArrow	1	1.5280973999761	231.5	231.493400300154	232.000045299996	233.993460800033
67	6	7	distractor	19	Right	Right	RightArrow	1	1.77248309995048	235	234.992972700158	235.497892900137	237.493391100084
68	6	8	distractor	41	Right	Right	RightArrow	1	1.27144099981524	238.5	238.493481100071	238.998004000168	240.993274100125
69	6	9	distractor	63	Right	Right	RightArrow	1	1.04208219982684	242	241.993064100156	242.496352400165	244.493377200095
70	6	10	distractor	21	Right	Right	RightArrow	1	1.41326030017808	245.5	245.493486799998	245.996146599995	247.993295700056
71	6	11	target	62	Left	Left	LeftArrow	1	1.72137450007722	249	248.99323630007	249.497586400015	251.493565100012
72	6	12	target	20	Left	Right	RightArrow	0	1.88991930009797	252.5	252.4934084001	253.00046260003	254.993391799973
