trial_id	block	trial	type	stim_id	cresp	resp	resp_raw	acc	rt	trial_start_time_expt	trial_start_time	stim_onset_time	stim_offset_time
1	1	1	filler	5	None			NaN	0	4	3.99341830000049	4.51997560000018	6.50049919999947
2	1	2	filler	25	None			NaN	0	7.5	7.51307799999995	8.00133529999948	9.99605060000067
3	1	3	target	4	Left			-1	0	11	11.0053275000009	11.4977565999998	13.4988611000008
4	1	4	target	27	Left	Right	RightArrow	0	1.54237610000018	14.5	14.5047161000002	14.9961053000006	16.9933283000009
5	1	5	target	6	Left	Left	LeftArrow	1	1.42214820000117	18	17.9936720999995	18.4998376999993	20.493428400001
6	1	6	distractor	48	Right	Left	LeftArrow	0	0.844817499999408	21.5	21.4933375000001	21.9977601999999	23.9933302000009
7	1	7	distractor	46	Right	Left	LeftArrow	0	1.08134919999975	25	24.9933469999996	25.4964271000008	27.4933755000002
8	1	8	target	47	Left	Left	LeftArrow	1	1.61840479999955	28.5	28.4933818000009	29.0000338999998	30.9933455999999
9	1	9	distractor	26	Right	Right	RightArrow	1	1.54430640000101	32	31.9933540000002	32.5000166999998	34.4933789999995
10	1	10	distractor	67	Right	Left	LeftArrow	0	1.03971830000046	35.5	35.4933760000004	36.0020755999994	37.9934193999998
11	1	11	distractor	68	Right	Left	LeftArrow	0	0.844850000001315	39	38.9933566	39.5012714999993	41.493368200001
12	1	12	target	69	Left	Left	LeftArrow	1	1.14113220000036	42.5	42.4933720000008	42.9964380000001	44.9933934000001
13	2	1	filler	30	None	Right	RightArrow	NaN	1.41972669999996	46	45.9933997999997	46.4999504999996	48.4935389000002
14	2	2	filler	49	None			NaN	0	49.5	49.4933720999998	49.9992053000005	51.9991738000008
15	2	3	distractor	71	Right			-1	0	53	53.0031306000001	53.4982020999996	55.4990443000006
16	2	4	distractor	8	Right			-1	0	56.5	56.5043657999995	56.9959952000008	58.9973857000005
17	2	5	target	72	Left	Left	LeftArrow	1	1.45504670000082	60	60.003138600001	60.4979837999999	62.4934159000004
18	2	6	target	7	Left	Right	RightArrow	0	2.98794020000059	63.5	63.494369	63.9992306999993	65.9979421000007
19	2	7	distractor	50	Right	Right	RightArrow	1	0.382502100001147	67	67.0006505000001	67.4999884999997	69.4933672000006
20	2	8	target	9	Left	Both	LeftArrow|RightArrow	0	0.446664400000373	70.5	70.4934226000005	70.9997736000005	72.9934078999995
21	2	9	target	51	Left	Left	LeftArrow	1	1.27005210000061	74	73.9933980999995	74.4982455999998	76.4933958000001
22	2	10	distractor	29	Right	Right	RightArrow	1	2.15029399999912	77.5	77.4933787000009	77.9975207000007	79.9973640999997
23	2	11	distractor	70	Right	Left	LeftArrow	0	0.635120099999767	81	80.9934293999995	81.5015277000002	83.4934659999999
24	2	12	target	28	Left	Left	LeftArrow	1	0.65011290000075	84.5	84.4933999999994	84.9964175999994	86.9934642000007
25	3	1	filler	33	None	Right	RightArrow	NaN	0.966419399999722	88	87.9933615000009	88.496067	90.4933418000001
26	3	2	filler	54	None			NaN	0	91.5	91.4933629000006	91.9997258000003	93.9997291
27	3	3	distractor	75	Right	Right	RightArrow	1	1.37867959999858	95	95.0032986000006	95.4972460000008	97.4933369999999
28	3	4	distractor	10	Right	Left	LeftArrow	0	1.11826579999979	98.5	98.4933927000002	98.9967508999998	100.993390199999
29	3	5	target	73	Left	Right	RightArrow	0	1.00621919999867	102	101.993258099999	102.500208200001	104.4934264
30	3	6	target	12	Left	Right	RightArrow	0	1.2071563999998	105.5	105.4933872	106.000390700001	107.9933821
31	3	7	target	74	Left	Right	RightArrow	0	1.16363420000016	109	108.9935147	109.498356	111.493368699999
32	3	8	distractor	53	Right	Left	LeftArrow	0	0.957446799999161	112.5	112.4934515	112.9977476	114.993395199999
33	3	9	distractor	32	Right	Right	RightArrow	1	1.27896529999998	116	115.993618500001	116.499072799999	118.493344300001
34	3	10	target	52	Left	Left	LeftArrow	1	1.19090850000066	119.5	119.493642200001	119.996923299999	121.9933669
35	3	11	target	31	Left	Right	RightArrow	0	0.836635999999999	123	122.993501299999	123.5014087	125.493403300001
36	3	12	distractor	11	Right	Right	RightArrow	1	0.883033000000069	126.5	126.4933194	126.9966207	128.993309199999
37	4	1	filler	56	None			NaN	0	130	129.993376500001	130.498800200001	132.4986861
38	4	2	filler	55	None			NaN	0	133.5	133.5037374	133.9996336	135.9964182
39	4	3	distractor	13	Right	Right	RightArrow	1	0.944171700000879	137	137.0083992	137.500387	139.4936951
40	4	4	distractor	14	Right	Right	RightArrow	1	1.14698359999966	140.5	140.4934058	140.999612400001	142.993492400001
41	4	5	distractor	78	Right	Right	RightArrow	1	1.14373950000117	144	143.993426000001	144.5014113	146.4935707
42	4	6	target	15	Left	Left	LeftArrow	1	1.16780690000087	147.5	147.493410200001	148.0010062	149.993376300001
43	4	7	target	76	Left	Right	RightArrow	0	1.47557179999967	151	150.993422	151.4981042	153.493334000001
44	4	8	distractor	36	Right	Right	RightArrow	1	1.40213489999951	154.5	154.493303400001	154.9963503	156.993466
45	4	9	target	77	Left	Left	LeftArrow	1	0.689882299999226	158	157.9935174	158.501061200001	160.4936652
46	4	10	target	35	Left	Right	RightArrow	0	0.540466700000252	161.5	161.493438400001	162.0000996	163.993370100001
47	4	11	distractor	57	Right	Left	LeftArrow	0	0.884009999999762	165	164.9933888	165.496792	167.4933647
48	4	12	target	34	Left	Right	RightArrow	0	0.96297930000037	168.5	168.493313299999	168.997619100001	170.993373200001
49	5	1	filler	58	None			NaN	0	172	171.993374600001	172.493375399999	174.495644500001
50	5	2	filler	18	None			NaN	0	175.5	175.503619499999	175.996467999999	177.996240500001
51	5	3	target	60	Left			-1	0	179	179.008684500001	179.497537900001	181.498067099999
52	5	4	target	16	Left	Right	RightArrow	0	1.21704280000085	182.5	182.5086579	182.996728	184.9935735
53	5	5	distractor	80	Right	Left	LeftArrow	0	1.08925670000099	186	185.993429	186.4990485	188.4934022
54	5	6	target	17	Left	Right	RightArrow	0	0.824421299999813	189.5	189.493352199999	190.000254500001	191.992967300001
55	5	7	distractor	38	Right	Left	LeftArrow	0	0.810167199999341	193	192.993204300001	193.497448100001	195.4939228
56	5	8	distractor	81	Right	Right	RightArrow	1	1.16436640000029	196.5	196.4934421	197.000544	198.993350000001
57	5	9	target	37	Left	Right	RightArrow	0	0.885569600000963	200	199.9933014	200.497712599999	202.4933401
58	5	10	distractor	59	Right	Left	LeftArrow	0	1.7205529999992	203.5	203.493380800001	204.0002652	205.993402300001
59	5	11	target	39	Left	Right	RightArrow	0	0.536687100000563	207	206.9933834	207.4992265	209.4933538
60	5	12	distractor	79	Right	Right	RightArrow	1	0.598799800000052	210.5	210.493675600001	210.9993749	212.9933502
61	6	1	filler	42	None	Right	RightArrow	NaN	1.21811710000111	214	213.993361299999	214.5006839	216.4933671
62	6	2	filler	83	None			NaN	0	217.5	217.4933549	217.996331	219.997303800001
63	6	3	target	40	Left	Right	RightArrow	0	1.21483769999941	221	221.008459000001	221.4993624	223.4933673
64	6	4	target	84	Left	Right	RightArrow	0	1.75976249999985	224.5	224.4934139	224.9996187	226.9934605
65	6	5	distractor	61	Right	Left	LeftArrow	0	1.38060349999978	228	227.9934615	228.501075	230.4933391
66	6	6	target	82	Left	Right	RightArrow	0	0.946114399999715	231.5	231.493824499999	231.997894	233.9933929
67	6	7	distractor	19	Right	Right	RightArrow	1	1.01120430000083	235	234.993309400001	235.500077799999	237.4933678
68	6	8	distractor	41	Right	Left	LeftArrow	0	0.734334500000841	238.5	238.4933444	238.9964513	240.994255
69	6	9	distractor	63	Right	Left	LeftArrow	0	0.738005100000009	242	241.9933877	242.502407600001	244.493505
70	6	10	distractor	21	Right	Left	LeftArrow	0	0.231617800000095	245.5	245.4933774	245.993341699999	247.993361999999
71	6	11	target	62	Left	Left	LeftArrow	1	0.9415044999987	249	248.9933728	249.497408900001	251.4933965
72	6	12	target	20	Left	Right	RightArrow	0	1.23468500000126	252.5	252.493410700001	252.9959076	254.993382799999
