trial_id	block	trial	type	stim_id	cresp	resp	resp_raw	acc	rt	trial_start_time_expt	trial_start_time	stim_onset_time	stim_offset_time
1	1	1	filler	48	None			NaN	0	4	3.99332750000758	4.50826339999912	6.49633599998197
2	1	2	filler	68	None			NaN	0	7.5	7.51849589997437	8.00528159999521	9.99613049998879
3	1	3	target	46	Left	Left	LeftArrow	1	2.12155560002429	11	11.0023811999708	11.4994075999712	13.4979945999803
4	1	4	distractor	47	Right	Right	RightArrow	1	2.38004439999349	14.5	14.4930345999892	15.0049601999926	16.9966036999831
5	1	5	distractor	26	Right	Right	RightArrow	1	2.23228770005517	18	17.9934573000064	18.503671399958	20.4974098000093
6	1	6	distractor	27	Right	Right	RightArrow	1	2.31573109998135	21.5	21.4934605999733	22.0023715000134	23.9965544999577
7	1	7	distractor	5	Right	Right	RightArrow	1	1.83524430001853	25	24.9934601999703	25.5007535999757	27.493347599986
8	1	8	target	25	Left	Right	RightArrow	0	1.62203620001674	28.5	28.4933760999702	28.999668399978	30.9934381999774
9	1	9	target	4	Left	Right	RightArrow	0	2.47878060000949	32	31.9931543999701	32.4985780999996	34.4995163999847
10	1	10	distractor	69	Right	Right	RightArrow	1	1.73692980001215	35.5	35.4935728000128	36.0029026999837	37.9933138999622
11	1	11	target	6	Left	Left	LeftArrow	1	1.9422096000053	39	38.9932906999602	39.5038665999891	41.4933209999581
12	1	12	target	67	Left	Right	RightArrow	0	2.3912047999911	42.5	42.4934629999916	43.0039934999659	44.9985308999894
13	2	1	filler	9	None	Right	RightArrow	NaN	2.35995730001014	46	45.9934989999747	46.5002708999673	48.497250299959
14	2	2	filler	30	None	Right	RightArrow	NaN	1.71738210000331	49.5	49.4934887000127	49.9988504999783	51.9933731000056
15	2	3	target	7	Left	Left	LeftArrow	1	0.874331599974539	53	52.9933897999581	53.4969729000004	55.4934318999876
16	2	4	target	28	Left	Right	RightArrow	0	1.55700269999215	56.5	56.4934986999724	57.0012017000117	58.9934469999862
17	2	5	distractor	71	Right	Right	RightArrow	1	1.22849710000446	60	59.9934727000073	60.5027822999982	62.4934390999842
18	2	6	target	29	Left	Right	RightArrow	0	1.8182325999951	63.5	63.4934471999877	64.0001204999862	65.9934780999902
19	2	7	distractor	8	Right	Right	RightArrow	1	1.80084200005513	67	66.9933779999847	67.5009957999573	69.4934327999945
20	2	8	distractor	72	Right	Right	RightArrow	1	1.66107360000024	70.5	70.4937844999949	71.0014392999583	72.9933900999604
21	2	9	distractor	50	Right	Left	LeftArrow	0	1.49492230004398	74	73.9931574999937	74.5005843999679	76.4930388999637
22	2	10	target	70	Left	Neither	PageDown	0	2.16914820001693	77.5	77.4934630999924	78.0035812999704	79.9937703000032
23	2	11	target	49	Left	Left	LeftArrow	1	2.53401970001869	81	80.9933968000114	81.4999570999644	83.4984862999991
24	2	12	distractor	51	Right	Right	RightArrow	1	1.5664421999827	84.5	84.4934319999884	84.9983869999996	86.9934608999756
25	3	1	filler	31	None	Right	RightArrow	NaN	1.31990570004564	88	87.9934402999934	88.5028537999606	90.4934491000022
26	3	2	filler	10	None			NaN	0	91.5	91.4934624999878	91.9985835999832	93.9974751999835
27	3	3	distractor	53	Right	Right	RightArrow	1	0.628664800024126	95	94.9988493999699	95.5031837999704	97.493370799988
28	3	4	target	12	Left	Right	RightArrow	0	2.07674550003139	98.5	98.4930132000009	99.0028306999593	100.999945599993
29	3	5	distractor	74	Right	Left	LeftArrow	0	2.11811200005468	102	101.993391599972	102.504183499957	104.499677699991
30	3	6	target	11	Left	Right	RightArrow	0	1.29170209995937	105.5	105.493990099989	106.003034599999	107.993414799974
31	3	7	target	75	Left	Right	RightArrow	0	1.59454520000145	109	108.993437699974	109.497983100009	111.493476299976
32	3	8	distractor	54	Right	Left	LeftArrow	0	1.95544230000814	112.5	112.493431399984	113.000730999978	114.993360599969
33	3	9	distractor	32	Right	Right	RightArrow	1	1.39614849997452	116	115.993369599979	116.499692299985	118.493328499957
34	3	10	target	52	Left	Right	RightArrow	0	1.19801450002706	119.5	119.493447399989	120.002388799971	121.993509799999
35	3	11	target	33	Left	Left	LeftArrow	1	1.76377090002643	123	122.993465700012	123.501072899962	125.493439699989
36	3	12	distractor	73	Right	Right	RightArrow	1	1.59811209997861	126.5	126.493452199968	126.997937800013	128.993436099961
37	4	1	filler	13	None	Left	LeftArrow	NaN	2.77230559999589	130	129.993450500013	130.503423099988	132.497917199973
38	4	2	filler	14	None	Right	RightArrow	NaN	2.63814110000385	133.5	133.493454299984	134.001695799991	135.997785799962
39	4	3	target	15	Left	Right	RightArrow	0	1.67217599996366	137	136.993441500003	137.503433400008	139.493518800009
40	4	4	distractor	56	Right			-1	0	140.5	140.493005800003	141.000168800005	142.9940527
41	4	5	distractor	76	Right	Right	RightArrow	1	1.12252249999437	144	144.003869800013	144.49977569998	146.493443799962
42	4	6	target	55	Left	Left	LeftArrow	1	2.0979520000401	147.5	147.493330499972	148.001913999964	149.9958415
43	4	7	target	78	Left	Right	RightArrow	0	1.77104099997086	151	150.993291499966	151.502230499987	153.493448900001
44	4	8	distractor	36	Right	Right	RightArrow	1	1.51781559997471	154.5	154.493430399976	154.997155999998	156.993378599989
45	4	9	target	77	Left	Right	RightArrow	0	1.63438990002032	158	157.993482599966	158.503144299961	160.493465999956
46	4	10	target	35	Left	Right	RightArrow	0	2.48554520000471	161.5	161.493451299961	162.004152799957	163.998653999995
47	4	11	distractor	34	Right	Left	LeftArrow	0	2.31210229999851	165	164.99345249997	165.500317899976	167.494204899995
48	4	12	distractor	57	Right	Right	RightArrow	1	1.91455550002865	168.5	168.493385399983	168.999292699969	170.99344489997
49	5	1	filler	58	None	Right	RightArrow	NaN	1.52524170000106	172	171.993516799994	172.503120400012	174.49352769996
50	5	2	filler	81	None			NaN	0	175.5	175.49340669997	176.001358499983	177.999675399973
51	5	3	target	60	Left	Left	LeftArrow	1	1.83224389998941	179	179.000046200003	179.496456499968	181.493433800002
52	5	4	target	80	Left	Right	RightArrow	0	2.38370299997041	182.5	182.493272499996	183.002039799991	184.996261099994
53	5	5	distractor	18	Right	Right	RightArrow	1	2.27571379998699	186	185.993467399967	186.498401599994	188.499581100012
54	5	6	distractor	16	Right			-1	0	189.5	189.493379499996	190.000737399969	191.994900299993
55	5	7	distractor	39	Right	Right	RightArrow	1	1.74173870001687	193	193.007163500006	193.500644599961	195.493448299996
56	5	8	target	17	Left	Right	RightArrow	0	1.16460130002815	196.5	196.493365800008	197.001617599977	198.993440899998
57	5	9	target	38	Left	Left	LeftArrow	1	1.41422380000586	200	199.993348599994	200.50209829997	202.493446899985
58	5	10	distractor	59	Right	Right	RightArrow	1	1.69298100000015	203.5	203.493371299992	204.002231499995	205.993436299963
59	5	11	target	37	Left	Left	LeftArrow	1	1.52266600000439	207	206.993565999961	207.502235699969	209.493485799991
60	5	12	distractor	79	Right	Left	LeftArrow	0	1.58266349998303	210.5	210.493384499976	211.002345199988	212.993442800012
61	6	1	filler	21	None	Left	LeftArrow	NaN	1.41831759997876	214	213.993423799984	214.500114900002	216.493422599975
62	6	2	filler	40	None			NaN	0	217.5	217.49341960001	217.999800399994	219.994143899996
63	6	3	target	20	Left	Left	LeftArrow	1	0.878285699989647	221	221.006732799986	221.504087799985	223.493375499966
64	6	4	distractor	62	Right	Right	RightArrow	1	1.91573700000299	224.5	224.493064199982	225.000946399989	226.993439699989
65	6	5	distractor	82	Right			-1	0	228	227.993442900013	228.49861509999	230.495115400001
66	6	6	target	61	Left	Right	RightArrow	0	1.43212539999513	231.5	231.505550400005	232.004247199977	233.993451399961
67	6	7	target	83	Left	Left	LeftArrow	1	1.04487280000467	235	234.993050999998	235.498571700009	237.493271599989
68	6	8	target	63	Left	Right	RightArrow	0	1.48269009997603	238.5	238.49345519999	238.997888499987	240.993521499971
69	6	9	target	84	Left	Right	RightArrow	0	1.37969829997746	242	241.993544599973	242.503590599983	244.493477899989
70	6	10	distractor	41	Right	Left	LeftArrow	0	1.40746000001673	245.5	245.49344359996	246.003721999994	247.993650799966
71	6	11	distractor	42	Right	Right	RightArrow	1	1.89320150000276	249	248.993397000013	249.504638499988	251.493317999993
72	6	12	distractor	19	Right	Right	RightArrow	1	1.95117989997379	252.5	252.493333599996	253.004042099987	254.993338299973
