trial_id	block	trial	type	stim_id	cresp	resp	resp_raw	acc	rt	trial_start_time_expt	trial_start_time	stim_onset_time	stim_offset_time
1	1	1	filler	48	None			NaN	0	4	3.99343020003289	4.53934159991331	6.49751809984446
2	1	2	filler	68	None			NaN	0	7.5	7.50480540003628	8.04005519999191	9.9988496999722
3	1	3	target	46	Left	Left	LeftArrow	1	1.45503329997882	11	11.0074744999874	11.5377533000428	13.4934318000451
4	1	4	distractor	47	Right	Right	RightArrow	1	1.43605619994923	14.5	14.4933352998924	15.0380508999806	16.9934191999491
5	1	5	distractor	26	Right	Right	RightArrow	1	2.05754579999484	18	17.9933499998879	18.5365265000146	20.4979894999415
6	1	6	distractor	27	Right	Left	LeftArrow	0	1.4103535998147	21.5	21.4933849000372	22.0357629000209	23.9933972998988
7	1	7	distractor	5	Right	Right	RightArrow	1	1.59319639997557	25	24.9930973998271	25.5373046998866	27.49345729989
8	1	8	target	25	Left	Left	LeftArrow	1	1.39573660003953	28.5	28.4934558998793	29.0394274999853	30.9933576998301
9	1	9	target	4	Left	Left	LeftArrow	1	2.5240617999807	32	31.994291999843	32.5371230000164	34.4953365998808
10	1	10	distractor	69	Right	Right	RightArrow	1	1.35736969998106	35.5	35.4934541999828	36.0401268999558	37.9934000999201
11	1	11	target	6	Left			-1	0	39	38.9933855000418	39.5372917000204	41.4971497999504
12	1	12	target	67	Left	Right	RightArrow	0	2.16869529988617	42.5	42.5038970999885	43.0389767999295	44.9966274998151
13	2	1	filler	9	None			NaN	0	46	45.99337869999	46.506462499965	48.500318299979
14	2	2	filler	30	None			NaN	0	49.5	49.5067367998417	50.0366405998357	51.9995934998151
15	2	3	target	7	Left	Left	LeftArrow	1	2.59615549980663	53	53.0077702999115	53.5390679000411	55.4941729998682
16	2	4	target	28	Left	Right	RightArrow	0	1.21936640003696	56.5	56.4934522998519	57.0397210000083	58.9934326999355
17	2	5	distractor	71	Right	Left	LeftArrow	0	1.26549080014229	60	59.9934665998444	60.5419526998885	62.4934652999509
18	2	6	target	29	Left	Right	RightArrow	0	1.71340089989826	63.5	63.493504300015	64.03697929997	65.9932191998232
19	2	7	distractor	8	Right	Right	RightArrow	1	0.83316979999654	67	66.9933632998727	67.4999386998825	69.49345729989
20	2	8	distractor	72	Right	Left	LeftArrow	0	0.934376900084317	70.5	70.4934779000469	70.99808319984	72.993467199849
21	2	9	distractor	50	Right	Left	LeftArrow	0	2.34198869997635	74	73.993379099993	74.5371008999646	76.4975105999038
22	2	10	target	70	Left	Right	RightArrow	0	1.68999219988473	77.5	77.4936680998653	78.0388279999606	79.9934845999815
23	2	11	target	49	Left			-1	0	81	80.9935540000442	81.5372033000458	83.4945696999785
24	2	12	distractor	51	Right	Left	LeftArrow	0	0.981000199913979	84.5	84.509660199983	84.9980971999466	86.9934490998276
25	3	1	filler	31	None			NaN	0	88	87.9934243999887	88.5027959998697	90.4939176999032
26	3	2	filler	10	None			NaN	0	91.5	91.5064999000169	92.038305999944	93.9966382998973
27	3	3	distractor	53	Right	Right	RightArrow	1	1.82092029997148	95	95.0073333999608	95.5011878998484	97.4934398999903
28	3	4	target	12	Left	Left	LeftArrow	1	1.7830854000058	98.5	98.4934763000347	99.0399450999685	100.993450199952
29	3	5	distractor	74	Right	Right	RightArrow	1	1.57140799984336	102	101.99344459991	102.537930899998	104.49345329986
30	3	6	target	11	Left	Right	RightArrow	0	1.76990110008046	105.5	105.493381999899	106.036900999956	107.993323500035
31	3	7	target	75	Left	Left	LeftArrow	1	1.20514869992621	109	108.993066899944	109.502511200029	111.493480499834
32	3	8	distractor	54	Right	Left	LeftArrow	0	1.66198320011608	112.5	112.49343849998	113.037656999892	114.993071999867
33	3	9	distractor	32	Right	Left	LeftArrow	0	1.75658499985002	116	115.993555099936	116.539802100044	118.493870300008
34	3	10	target	52	Left	Right	RightArrow	0	2.83484550006688	119.5	119.49341590004	120.037646299927	121.997385099996
35	3	11	target	33	Left			-1	0	123	122.99342149985	123.536397199845	125.498144899961
36	3	12	distractor	73	Right	Left	LeftArrow	0	0.853347900090739	126.5	126.509079299867	126.998982699821	128.993479899829
37	4	1	filler	13	None			NaN	0	130	129.993367800023	130.53835129994	132.499431999866
38	4	2	filler	14	None			NaN	0	133.5	133.506700899918	134.00208060001	135.998882599873
39	4	3	target	15	Left	Left	LeftArrow	1	1.31061469996348	137	137.006670200033	137.5364043999	139.493212899892
40	4	4	distractor	56	Right	Right	RightArrow	1	1.74375539994799	140.5	140.493472999893	140.999172699871	142.993460299913
41	4	5	distractor	76	Right	Right	RightArrow	1	1.88193190004677	144	143.993365000002	144.538885499816	146.49337469996
42	4	6	target	55	Left	Right	RightArrow	0	2.25961719988845	147.5	147.493472100003	147.998861199943	149.993809199892
43	4	7	target	78	Left	Left	LeftArrow	1	0.995130999945104	151	150.993483999977	151.534497499932	153.493334499886
44	4	8	distractor	36	Right	Left	LeftArrow	0	0.710308199981228	154.5	154.49364260002	155.03716930002	156.993417799938
45	4	9	target	77	Left	Right	RightArrow	0	0.789361800067127	158	157.993079900043	158.538126599975	160.493437599856
46	4	10	target	35	Left	Left	LeftArrow	1	0.700740899890661	161.5	161.493370600045	162.041256099939	163.993266899837
47	4	11	distractor	34	Right	Left	LeftArrow	0	1.30482809990644	165	164.993443300016	165.49914989993	167.493066899944
48	4	12	distractor	57	Right	Right	RightArrow	1	1.75415239995345	168.5	168.493068799842	169.000336699886	170.993450199952
49	5	1	filler	58	None			NaN	0	172	171.993472999893	172.538815999869	174.494124399964
50	5	2	filler	81	None			NaN	0	175.5	175.500944199972	176.004701599944	177.997159800027
51	5	3	target	60	Left	Left	LeftArrow	1	1.28021820005961	179	179.003867399879	179.538506199839	181.493531299988
52	5	4	target	80	Left	Left	LeftArrow	1	1.46462940005586	182.5	182.493496199837	182.993079999927	184.993289999897
53	5	5	distractor	18	Right	Left	LeftArrow	0	2.41763080004603	186	185.993480799953	186.536108899862	188.494486199925
54	5	6	distractor	16	Right	Left	LeftArrow	0	2.03163979994133	189.5	189.494029499823	190.00617749989	191.999315700028
55	5	7	distractor	39	Right	Right	RightArrow	1	1.07982360012829	193	192.993473500013	193.534703899873	195.492978499969
56	5	8	target	17	Left	Left	LeftArrow	1	1.61307850014418	196.5	196.493369600037	197.001816799864	198.993442100007
57	5	9	target	38	Left	Right	RightArrow	0	1.32804509997368	200	199.993378899992	200.5008409	202.493134199874
58	5	10	distractor	59	Right	Left	LeftArrow	0	1.88276599999517	203.5	203.49310870003	204.036012499826	205.99345119996
59	5	11	target	37	Left	Left	LeftArrow	1	0.671591999940574	207	206.993450399954	207.531390500022	209.493446399923
60	5	12	distractor	79	Right	Right	RightArrow	1	0.733355599921197	210.5	210.493468799861	211.037413700018	212.993384999922
61	6	1	filler	21	None	Left	LeftArrow	NaN	1.03508200007491	214	213.993113199947	214.536161199911	216.49339660001
62	6	2	filler	40	None			NaN	0	217.5	217.493406999856	218.03663249989	219.998326199828
63	6	3	target	20	Left	Left	LeftArrow	1	2.30860240012407	221	221.004509999882	221.539253499825	223.497639299836
64	6	4	distractor	62	Right	Right	RightArrow	1	0.960555400000885	224.5	224.493337299908	225.036514200037	226.993400299922
65	6	5	distractor	82	Right	Left	LeftArrow	0	0.707797500072047	228	227.99345379998	228.498619799968	230.493072199868
66	6	6	target	61	Left	Right	RightArrow	0	1.50571929989383	231.5	231.493386199931	232.001689699944	233.993456699885
67	6	7	target	83	Left	Left	LeftArrow	1	1.60077229980379	235	234.993448199937	235.535903600045	237.493469399866
68	6	8	target	63	Left	Right	RightArrow	0	1.58048329991288	238.5	238.4931069999	239.004114999902	240.993078199914
69	6	9	target	84	Left	Left	LeftArrow	1	1.86079540010542	242	241.993497999851	242.501261199825	244.493383700028
70	6	10	distractor	41	Right	Left	LeftArrow	0	1.06265119998716	245.5	245.493448499823	246.037637399975	247.993472199887
71	6	11	distractor	42	Right	Left	LeftArrow	0	0.96046349988319	249	248.993460699916	249.539902999997	251.493401000043
72	6	12	distractor	19	Right	Right	RightArrow	1	1.24504940002225	252.5	252.493413199903	253.040030899923	254.993464099942
