trial_id	block	trial	type	stim_id	cresp	resp	resp_raw	acc	rt	trial_start_time_expt	trial_start_time	stim_onset_time	stim_offset_time
1	1	1	filler	48	None			NaN	0	4	3.99286389999907	4.54392219998408	6.49889939997229
2	1	2	filler	68	None			NaN	0	7.5	7.50142759998562	8.03827349998755	9.99502579998807
3	1	3	target	46	Left	Left	LeftArrow	1	1.47118520000367	11	11.011873099982	11.5378880999924	13.4934583999857
4	1	4	distractor	47	Right	Right	RightArrow	1	1.47807019998436	14.5	14.4933868999942	15.0033364999981	16.9928847999836
5	1	5	distractor	26	Right	Right	RightArrow	1	1.73670160002075	18	17.9934338999738	18.536838799977	20.4929186999798
6	1	6	distractor	27	Right	Right	RightArrow	1	1.74975739998627	21.5	21.4931127999735	22.0405363999889	23.9935047999898
7	1	7	distractor	5	Right	Right	RightArrow	1	1.47599579999223	25	24.9929964999901	25.5377155999886	27.4935024999722
8	1	8	target	25	Left	Left	LeftArrow	1	1.24840429998585	28.5	28.4934201999858	28.9982444999914	30.9934626999893
9	1	9	target	4	Left	Right	RightArrow	0	1.72926130000269	32	31.9935569999798	32.541585399973	34.4930409999797
10	1	10	distractor	69	Right	Right	RightArrow	1	1.30676020000828	35.5	35.4930375999829	36.0398155999719	37.9934179999982
11	1	11	target	6	Left	Left	LeftArrow	1	0.515666299994336	39	38.993501399993	39.4960907999775	41.4934810999839
12	1	12	target	67	Left	Right	RightArrow	0	1.49720350001007	42.5	42.493458699988	43.0395479999715	44.992834899982
13	2	1	filler	9	None			NaN	0	46	45.9930144999817	46.5040498999879	48.4946252999944
14	2	2	filler	30	None			NaN	0	49.5	49.5107259999786	49.9959737999889	51.9940556999936
15	2	3	target	7	Left	Left	LeftArrow	1	0.710544400004437	53	52.9980174999801	53.5364579999878	55.4934637999977
16	2	4	target	28	Left	Right	RightArrow	0	0.669046000024537	56.5	56.4929216999735	57.0081488999713	58.9928806999815
17	2	5	distractor	71	Right			-1	0	60	59.9938679999905	60.5377524999785	62.4984516999975
18	2	6	target	29	Left	Left	LeftArrow	1	1.44393919999129	63.5	63.5125576999853	64.0006127999804	65.9934460999793
19	2	7	distractor	8	Right	Right	RightArrow	1	1.39360119999037	67	66.9934395999881	67.5068525999959	69.4934812999854
20	2	8	distractor	72	Right	Right	RightArrow	1	1.52580870001111	70.5	70.4928989999753	71.0344457999745	72.9929043999873
21	2	9	distractor	50	Right	Neither	PageDown	0	0.326050899981055	74	73.9934944999986	74.4968924999994	76.4935915999813
22	2	10	target	70	Left	Right	RightArrow	0	1.29318209999474	77.5	77.4934450999717	78.0408984999813	79.9935354999907
23	2	11	target	49	Left	Right	RightArrow	0	0.843205599987414	81	80.9933623999823	81.5367115999979	83.4934241999872
24	2	12	distractor	51	Right	Left	LeftArrow	0	2.07213589997264	84.5	84.4933685999713	85.0397732999991	87.0007682999712
25	3	1	filler	31	None			NaN	0	88	87.9933484999929	88.5390721999865	90.4979670999746
26	3	2	filler	10	None			NaN	0	91.5	91.5071628999722	92.0296799999778	93.995427899994
27	3	3	distractor	53	Right	Right	RightArrow	1	1.06571190000977	95	95.0107327999722	95.5035914999899	97.4934375999728
28	3	4	target	12	Left	Left	LeftArrow	1	0.917809299979126	98.5	98.4931178999832	99.0395201999927	100.993038999994
29	3	5	distractor	74	Right	Right	RightArrow	1	1.43769789999351	102	101.993456099997	102.54149969999	104.493416499987
30	3	6	target	11	Left	Left	LeftArrow	1	1.12925560001167	105.5	105.493417299993	105.996411499975	107.993551799998
31	3	7	target	75	Left	Left	LeftArrow	1	1.4309487999999	109	108.99360289998	109.49640839998	111.493494799972
32	3	8	distractor	54	Right	Right	RightArrow	1	1.08560859999852	112.5	112.493630799989	113.039121999987	114.993439499987
33	3	9	distractor	32	Right	Right	RightArrow	1	1.50609370000893	116	115.992913599999	116.541146199976	118.493425399996
34	3	10	target	52	Left	Left	LeftArrow	1	1.10150459999568	119.5	119.493456599972	120.03603269998	121.993440399994
35	3	11	target	33	Left	Right	RightArrow	0	1.49660949999816	123	122.993524499994	123.537623799988	125.493507799983
36	3	12	distractor	73	Right	Right	RightArrow	1	1.34851529999287	126.5	126.49352009999	127.03508869998	128.993438099977
37	4	1	filler	13	None			NaN	0	130	129.994070699991	130.534830499993	132.496263499983
38	4	2	filler	14	None			NaN	0	133.5	133.499532799993	134.040614799975	135.994542099972
39	4	3	target	15	Left	Left	LeftArrow	1	1.18415089999326	137	137.006540499977	137.538740199991	139.493447099987
40	4	4	distractor	56	Right	Right	RightArrow	1	1.29978890001075	140.5	140.493312799983	141.001408199983	142.993403999979
41	4	5	distractor	76	Right	Right	RightArrow	1	1.05543330000364	144	143.993486299994	144.537264399987	146.493520399992
42	4	6	target	55	Left	Left	LeftArrow	1	1.1295730000129	147.5	147.493457199977	147.999633999978	149.99335189999
43	4	7	target	78	Left	Right	RightArrow	0	1.37170950000291	151	150.993438099977	151.537226299988	153.493399499974
44	4	8	distractor	36	Right	Right	RightArrow	1	1.21392149999156	154.5	154.493079799984	155.038704899984	156.993587199977
45	4	9	target	77	Left	Left	LeftArrow	1	1.50083490001271	158	157.993401199987	158.505657399975	160.493532499997
46	4	10	target	35	Left	Right	RightArrow	0	0.904260900017107	161.5	161.493504899991	162.035156799975	163.993446899985
47	4	11	distractor	34	Right	Right	RightArrow	1	1.70293030000175	165	164.993411399977	165.502169299987	167.493493199989
48	4	12	distractor	57	Right	Right	RightArrow	1	1.52903889998561	168.5	168.493396899983	169.002235299995	170.993036699976
49	5	1	filler	58	None			NaN	0	172	171.993512799992	172.538101399987	174.495971999975
50	5	2	filler	81	None			NaN	0	175.5	175.508785299986	176.001069799997	177.994720899995
51	5	3	target	60	Left	Right	RightArrow	0	0.812424200004898	179	179.007505199988	179.536539899971	181.493482399994
52	5	4	target	80	Left	Right	RightArrow	0	0.872623900009785	182.5	182.493436299992	183.035764999979	184.992862199986
53	5	5	distractor	18	Right	Left	LeftArrow	0	1.48623010001029	186	185.993463699997	186.541204599984	188.493382899993
54	5	6	distractor	16	Right			-1	0	189.5	189.493465499982	190.035533799994	191.998360999976
55	5	7	distractor	39	Right	Right	RightArrow	1	1.47496409999439	193	193.007980299997	193.540964099986	195.493442199979
56	5	8	target	17	Left	Left	LeftArrow	1	1.53365840000333	196.5	196.493524899997	197.041609399981	198.993549999985
57	5	9	target	38	Left	Left	LeftArrow	1	1.73444390000077	200	199.992888499983	200.541091199993	202.493370299984
58	5	10	distractor	59	Right			-1	0	203.5	203.493465899985	203.995895699976	205.997781999991
59	5	11	target	37	Left	Left	LeftArrow	1	1.23125469998922	207	206.996250999975	207.500189399987	209.493305499986
60	5	12	distractor	79	Right	Right	RightArrow	1	1.63777179998579	210.5	210.493573099986	211.050531999994	212.993691899988
61	6	1	filler	21	None			NaN	0	214	213.993462599989	214.53796679998	216.497590499988
62	6	2	filler	40	None			NaN	0	217.5	217.510265899997	218.039179899992	219.994452099985
63	6	3	target	20	Left	Right	RightArrow	0	1.06977860000916	221	221.009064299986	221.542049999989	223.493352299993
64	6	4	distractor	62	Right	Right	RightArrow	1	1.00439469999401	224.5	224.49372649999	225.038387799985	226.993433799973
65	6	5	distractor	82	Right	Right	RightArrow	1	2.2423619000183	228	227.993366099981	228.503792299976	230.497266099992
66	6	6	target	61	Left	Left	LeftArrow	1	1.77530599999591	231.5	231.493632399972	232.002706799976	233.993450399983
67	6	7	target	83	Left	Left	LeftArrow	1	1.63901409998653	235	234.993551399995	235.537497399986	237.493540899974
68	6	8	target	63	Left	Right	RightArrow	0	1.97801630001049	238.5	238.493424099986	239.003709299985	240.993462599989
69	6	9	target	84	Left			-1	0	242	241.993518999981	242.505500799976	244.499506299995
70	6	10	distractor	41	Right	Right	RightArrow	1	1.35971190000419	245.5	245.506495699985	246.038421499979	247.993109999981
71	6	11	distractor	42	Right	Right	RightArrow	1	1.07403209997574	249	248.993375599995	249.535423499998	251.493451899994
72	6	12	distractor	19	Right	Right	RightArrow	1	1.15505140001187	252.5	252.493459799996	253.037083099975	254.993448699999
