trial_id	block	trial	type	stim_id	cresp	resp	resp_raw	acc	rt	trial_start_time_expt	trial_start_time	stim_onset_time	stim_offset_time
1	1	1	filler	41	None			NaN	0	4	3.99338690005243	4.50654540001415	6.49466950003989
2	1	2	filler	42	None			NaN	0	7.5	7.51719579997007	8.00643259997014	9.99427420005668
3	1	3	distractor	5	Right			-1	0	11	11.0119083999889	11.5035184000153	13.4942708000308
4	1	4	target	43	Left			-1	0	14.5	14.5070935999975	15.0032393999863	16.9939461000031
5	1	5	target	7	Left			-1	0	18	18.0016705000307	18.5011478000088	20.4966200999916
6	1	6	distractor	6	Right	Right	RightArrow	1	2.40797429997474	21.5	21.5085344000254	21.9994274000637	23.9942698000232
7	1	7	target	9	Left			-1	0	25	24.9935048000189	25.5034779000562	27.498543899972
8	1	8	distractor	45	Right			-1	0	28.5	28.5055341999978	28.9974043000257	30.9972884999588
9	1	9	distractor	44	Right	Right	RightArrow	1	1.9823638999369	32	32.0096189000178	32.4982045000652	34.4930210000603
10	1	10	distractor	10	Right			-1	0	35.5	35.4933540000347	36.0002444999991	37.9945453000255
11	1	11	target	46	Left			-1	0	39	39.0044790999964	39.4969349000603	41.4956005000276
12	1	12	target	8	Left	Left	LeftArrow	1	2.72415320004802	42.5	42.5047720000148	43.0007970000152	44.9968966000015
13	2	1	filler	51	None			NaN	0	46	45.9934563999996	46.5044205000158	48.4981056000106
14	2	2	filler	12	None			NaN	0	49.5	49.5060646999627	49.999440100044	51.9975920000579
15	2	3	distractor	14	Right			-1	0	53	53.0058099000016	53.4988431000384	55.4972307999851
16	2	4	distractor	47	Right	Right	RightArrow	1	0.371154499938712	56.5	56.5060462000547	56.9990705000237	58.993414000026
17	2	5	distractor	49	Right			-1	0	60	59.993429300026	60.4981150999665	62.4987055000383
18	2	6	target	52	Left	Left	LeftArrow	1	1.81347220006865	63.5	63.5080889000092	63.9985784000019	65.9934718000004
19	2	7	target	50	Left			-1	0	67	66.9934219999705	67.5024611999979	69.4941988000646
20	2	8	target	48	Left			-1	0	70.5	70.506775100017	71.0019268000033	72.9938325000694
21	2	9	distractor	16	Right	Right	RightArrow	1	1.57210580003448	74	74.0037454999983	74.4971570000052	76.4934504000703
22	2	10	distractor	13	Right			-1	0	77.5	77.4935048000189	78.0012513999827	79.9985211000312
23	2	11	target	11	Left			-1	0	81	81.00865600002	81.5002477000235	83.494353099959
24	2	12	target	15	Left	Left	LeftArrow	1	2.60876460000873	84.5	84.5076141000027	85.0013889999827	86.9956014000345
25	3	1	filler	17	None			NaN	0	88	87.9934218999697	88.4976074000588	90.4948304999853
26	3	2	filler	57	None			NaN	0	91.5	91.5042357000057	91.997619300033	93.9942523000063
27	3	3	distractor	53	Right	Right	RightArrow	1	1.53170669998508	95	95.0064258000348	95.5013653000351	97.4937525000423
28	3	4	distractor	20	Right			-1	0	98.5	98.4934231999796	99.000189500046	100.993860300048
29	3	5	target	58	Left			-1	0	102	102.006270900019	102.501445800066	104.496390899993
30	3	6	distractor	56	Right	Left	LeftArrow	0	2.57404550001957	105.5	105.503979300032	106.00150360004	107.995287799975
31	3	7	target	55	Left			-1	0	109	108.993083300069	109.501493399963	111.495430300012
32	3	8	distractor	21	Right			-1	0	112.5	112.504599899985	113.001241900027	114.994249199983
33	3	9	target	54	Left	Left	LeftArrow	1	2.15921019995585	116	116.006472100038	116.498154100031	118.498363299994
34	3	10	target	22	Left			-1	0	119.5	119.493374100071	120.003199500032	122.000721500022
35	3	11	distractor	19	Right			-1	0	123	123.004383799969	123.49960770004	125.495244099991
36	3	12	target	18	Left	Left	LeftArrow	1	1.45338650001213	126.5	126.504966999986	127.000974199967	128.993496300071
37	4	1	filler	24	None			NaN	0	130	129.993367600022	130.502841699985	132.498633100069
38	4	2	filler	63	None			NaN	0	133.5	133.507092499989	134.004286200041	135.995397599996
39	4	3	target	26	Left	Left	LeftArrow	1	1.96995239995886	137	137.003975	137.498492600047	139.493389100069
40	4	4	distractor	23	Right			-1	0	140.5	140.493492400041	140.999016999966	142.995762499981
41	4	5	distractor	59	Right			-1	0	144	144.003071299987	144.498548000003	146.495574900066
42	4	6	target	27	Left	Left	LeftArrow	1	1.18738440005109	147.5	147.5039598	147.998623499996	149.993361999979
43	4	7	distractor	25	Right			-1	0	151	150.993144200067	151.502053700038	153.498860500054
44	4	8	target	28	Left			-1	0	154.5	154.506714100018	155.000141300028	156.999130300013
45	4	9	distractor	64	Right			-1	0	158	158.007035000017	158.499659999972	160.497487599961
46	4	10	distractor	62	Right			-1	0	161.5	161.504192600027	161.993147699977	163.997499000048
47	4	11	target	60	Left			-1	0	165	165.003679499961	165.504137200071	167.49740360002
48	4	12	target	61	Left	Left	LeftArrow	1	1.62220149999484	168.5	168.507910600048	169.003409900004	170.993419200066
49	5	1	filler	32	None			NaN	0	172	171.993478100048	172.500411399989	174.495399500011
50	5	2	filler	34	None			NaN	0	175.5	175.502681900049	175.995613300009	177.99406539998
51	5	3	target	31	Left	Left	LeftArrow	1	2.06359949999023	179	179.010142400046	179.50292140001	181.494763800059
52	5	4	distractor	65	Right			-1	0	182.5	182.49345030007	183.003517500008	184.996548000025
53	5	5	distractor	68	Right			-1	0	186	186.005008900072	186.498464400065	188.494699300034
54	5	6	distractor	30	Right	Right	RightArrow	1	1.53146700002253	189.5	189.505533399992	190.001546500018	191.993442900013
55	5	7	target	70	Left			-1	0	193	192.993475300027	193.497363800067	195.498845700058
56	5	8	distractor	67	Right			-1	0	196.5	196.507761899964	196.998175799963	198.995156600024
57	5	9	target	66	Left	Left	LeftArrow	1	2.37749040010385	200	200.009139499976	200.49958189996	202.494724499993
58	5	10	distractor	29	Right			-1	0	203.5	203.49355480005	203.998375899973	205.995632800041
59	5	11	target	69	Left			-1	0	207	207.00525409996	207.500325200032	209.496137100039
60	5	12	target	33	Left	Left	LeftArrow	1	1.90519690001383	210.5	210.507964499993	210.998435899965	212.993434800068
61	6	1	filler	38	None			NaN	0	214	213.993439499987	214.499482600018	216.494700800045
62	6	2	filler	37	None			NaN	0	217.5	217.51031849999	218.003815500066	219.995131700067
63	6	3	distractor	75	Right	Right	RightArrow	1	2.54823389998637	221	221.009060200071	221.502568099997	223.49849430006
64	6	4	target	36	Left			-1	0	224.5	224.493463400053	225.002698000055	226.993889000034
65	6	5	target	76	Left			-1	0	228	228.004194700043	228.499591600033	230.498074800009
66	6	6	distractor	71	Right	Right	RightArrow	1	1.80242289998569	231.5	231.509590100031	232.003349200008	233.993557300069
67	6	7	target	74	Left			-1	0	235	234.993322100025	235.499402299989	237.494643599959
68	6	8	target	73	Left			-1	0	238.5	238.508737900062	238.999372199993	240.998507200042
69	6	9	distractor	39	Right	Right	RightArrow	1	2.13491430005524	242	242.002937500016	242.500760699972	244.497247299994
70	6	10	distractor	40	Right			-1	0	245.5	245.493486199994	245.998788499972	247.996546500013
71	6	11	target	35	Left			-1	0	249	249.00574719999	249.502931899973	251.496466499986
72	6	12	distractor	72	Right	Right	RightArrow	1	1.75515659991652	252.5	252.504675199976	253.002850700053	254.993463100051
