trial_id	block	trial	type	stim_id	cresp	resp	resp_raw	acc	rt	trial_start_time_expt	trial_start_time	stim_onset_time	stim_offset_time
1	1	1	filler	5	None			NaN	0	4	3.99344840000049	4.5099811	6.49724590000187
2	1	2	filler	25	None			NaN	0	7.5	7.5170732000006	8.00292869999976	9.99907140000141
3	1	3	target	4	Left	Left	LeftArrow	1	1.17156170000089	11	11.0099203999998	11.4993880000002	13.493435700002
4	1	4	target	27	Left	Right	RightArrow	0	0.743939899999532	14.5	14.4934844000018	14.9979099000011	16.9934461000012
5	1	5	target	6	Left	Left	LeftArrow	1	1.3763383000005	18	17.9933750000018	18.5007236000019	20.4933865000021
6	1	6	distractor	48	Right	Right	RightArrow	1	0.962936799998715	21.5	21.4934157000025	21.9964609000017	23.9934184000012
7	1	7	distractor	46	Right	Left	LeftArrow	0	1.27514180000071	25	24.9934818000002	25.5002711000016	27.4934618000007
8	1	8	target	47	Left	Left	LeftArrow	1	0.729476999997132	28.5	28.4934823000003	28.9999697000021	30.9933096999994
9	1	9	distractor	26	Right	Right	RightArrow	1	1.36733309999909	32	31.9934321000001	32.5007384000019	34.4930248000019
10	1	10	distractor	67	Right	Right	RightArrow	1	1.43155410000327	35.5	35.4934039	35.9965790999995	37.9933638000002
11	1	11	distractor	68	Right	Right	RightArrow	1	1.9571219999998	39	38.9934943000007	39.4969471000004	41.4933566
12	1	12	target	69	Left	Left	LeftArrow	1	1.5869520999986	42.5	42.4934372000025	42.9968824000025	44.9931792999996
13	2	1	filler	30	None			NaN	0	46	45.9934599000007	46.5015153999993	48.499377600001
14	2	2	filler	49	None			NaN	0	49.5	49.5089948999994	50.0005254999996	51.997333700001
15	2	3	distractor	71	Right	Right	RightArrow	1	0.791698000000906	53	53.0036627000009	53.4993944000016	55.4932580000022
16	2	4	distractor	8	Right	Right	RightArrow	1	1.21465719999833	56.5	56.4933885000028	57.0007867000022	58.9934095999997
17	2	5	target	72	Left	Left	LeftArrow	1	0.93348810000316	60	59.9931039000003	60.5002908999995	62.4934183000005
18	2	6	target	7	Left	Right	RightArrow	0	0.832625299997744	63.5	63.4934103000014	64.0016022000018	65.9932394000025
19	2	7	distractor	50	Right	Right	RightArrow	1	1.0116375999969	67	66.993461500002	67.4957558000024	69.4934175000017
20	2	8	target	9	Left	Left	LeftArrow	1	0.491156500000216	70.5	70.4930260000001	70.9965444000009	72.9934286000025
21	2	9	target	51	Left	Right	RightArrow	0	0.248875599998428	74	73.9933794000026	74.4972310000012	76.4933951000021
22	2	10	distractor	29	Right	Left	LeftArrow	0	0.362703099999635	77.5	77.4935132000028	77.9970315000028	79.9933008000007
23	2	11	distractor	70	Right	Left	LeftArrow	0	0.513040799996816	81	80.9932932000011	81.4934176000024	83.4933863000006
24	2	12	target	28	Left	Right	RightArrow	0	0.535190299997339	84.5	84.4934745999999	84.9976157000019	86.9933783000015
25	3	1	filler	33	None			NaN	0	88	87.993376800001	88.4967778999999	90.4969662000003
26	3	2	filler	54	None			NaN	0	91.5	91.5031577000009	91.9978966000017	93.9955136999997
27	3	3	distractor	75	Right	Right	RightArrow	1	0.700323200002458	95	95.0048795000002	95.4970673999997	97.4933391000013
28	3	4	distractor	10	Right	Right	RightArrow	1	0.734425099999498	98.5	98.4934319999993	99.0007248000002	100.9934426
29	3	5	target	73	Left	Left	LeftArrow	1	0.699570299999323	102	101.993024800002	102.500680000001	104.4934584
30	3	6	target	12	Left	Left	LeftArrow	1	0.747917799999414	105.5	105.493362100002	105.998294600002	107.993351100002
31	3	7	target	74	Left	Left	LeftArrow	1	0.954359799998201	109	108.993493500002	109.499539800003	111.493447700002
32	3	8	distractor	53	Right	Right	RightArrow	1	0.535806899999443	112.5	112.493444600001	113.0012365	114.9934522
33	3	9	distractor	32	Right	Right	RightArrow	1	0.951260199999524	116	115.993341400001	116.499777200002	118.4933499
34	3	10	target	52	Left	Left	LeftArrow	1	1.03892389999965	119.5	119.493382600001	119.996685100003	121.993347899999
35	3	11	target	31	Left	Left	LeftArrow	1	0.669051400000171	123	122.993286100002	123.497118900003	125.4940867
36	3	12	distractor	11	Right	Right	RightArrow	1	0.795351400000072	126.5	126.4936715	126.998384800001	128.993042500002
37	4	1	filler	56	None			NaN	0	130	129.993347300002	130.496020300001	132.4967732
38	4	2	filler	55	None			NaN	0	133.5	133.506907900002	133.999933400002	135.994169000001
39	4	3	distractor	13	Right	Right	RightArrow	1	0.979143399999884	137	137.004467000002	137.496264600002	139.493317700002
40	4	4	distractor	14	Right	Right	RightArrow	1	1.10375700000077	140.5	140.493064500002	140.997023600001	142.993415200002
41	4	5	distractor	78	Right	Right	RightArrow	1	0.812606100000266	144	143.9933633	144.500230199999	146.493428000002
42	4	6	target	15	Left	Left	LeftArrow	1	0.731214399998862	147.5	147.493441500003	147.995974400001	149.993076500003
43	4	7	target	76	Left	Left	LeftArrow	1	1.58905500000037	151	150.993449100002	151.5003335	153.493457100001
44	4	8	distractor	36	Right	Right	RightArrow	1	0.978885899996385	154.5	154.493431900002	155.001785800003	156.993429300001
45	4	9	target	77	Left	Left	LeftArrow	1	0.981904799999029	158	157.993374000001	158.497023600001	160.493413
46	4	10	target	35	Left	Left	LeftArrow	1	0.854300700000749	161.5	161.493919600001	161.9970746	163.993368400003
47	4	11	distractor	57	Right	Right	RightArrow	1	1.52858489999926	165	164.9933313	165.502117100001	167.4930007
48	4	12	target	34	Left	Left	LeftArrow	1	1.06422079999902	168.5	168.493342100002	169.001332100001	170.993371799999
49	5	1	filler	58	None	Right	RightArrow	NaN	2.47789520000151	172	171.993453200001	172.501283900001	174.498706400002
50	5	2	filler	18	None			NaN	0	175.5	175.493025899999	176.001365800003	177.993852400003
51	5	3	target	60	Left	Left	LeftArrow	1	0.861568399999669	179	179.003346600002	179.495356800002	181.493355400002
52	5	4	target	16	Left	Right	RightArrow	0	0.64712309999959	182.5	182.493048300003	182.996617700002	184.993361200002
53	5	5	distractor	80	Right	Right	RightArrow	1	1.20888110000305	186	185.993410800002	186.496802199999	188.493364500002
54	5	6	target	17	Left	Left	LeftArrow	1	0.968601700002182	189.5	189.493408000002	189.9959829	191.993522000001
55	5	7	distractor	38	Right	Right	RightArrow	1	1.84743420000086	193	192.993002800002	193.497059100002	195.4934072
56	5	8	distractor	81	Right	Left	LeftArrow	0	1.37116669999887	196.5	196.4945778	196.997684800001	198.993306600001
57	5	9	target	37	Left	Left	LeftArrow	1	1.63985289999982	200	199.993283800002	200.497342000002	202.493318600002
58	5	10	distractor	59	Right	Right	RightArrow	1	0.776769200001581	203.5	203.493338600001	203.998448300001	205.993430800001
59	5	11	target	39	Left	Left	LeftArrow	1	0.851090799998929	207	206.9933494	207.499786100001	209.493240899999
60	5	12	distractor	79	Right	Right	RightArrow	1	0.702281700003368	210.5	210.4930389	210.999426599999	212.992926700001
61	6	1	filler	42	None			NaN	0	214	213.993027300003	214.499757900001	216.495963900001
62	6	2	filler	83	None			NaN	0	217.5	217.508704600001	217.998890000003	219.9987091
63	6	3	target	40	Left	Left	LeftArrow	1	0.876729999999952	221	221.0003793	221.501084400003	223.493518200001
64	6	4	target	84	Left	Left	LeftArrow	1	0.556032000000414	224.5	224.493461400001	224.9975834	226.993443400002
65	6	5	distractor	61	Right	Right	RightArrow	1	1.2360606000002	228	227.993375600003	228.496570400002	230.493362100002
66	6	6	target	82	Left	Left	LeftArrow	1	0.887201599998662	231.5	231.493402600001	231.996489500001	233.993310400001
67	6	7	distractor	19	Right	Right	RightArrow	1	1.37309119999918	235	234.9932257	235.502041400003	237.493393100001
68	6	8	distractor	41	Right	Right	RightArrow	1	1.35924390000218	238.5	238.493324400002	238.997646100001	240.993346800002
69	6	9	distractor	63	Right	Right	RightArrow	1	1.56553480000002	242	241.993374400001	242.501589800002	244.4933628
70	6	10	distractor	21	Right	Right	RightArrow	1	1.43758390000221	245.5	245.493051200003	246.0001792	247.9930183
71	6	11	target	62	Left	Left	LeftArrow	1	1.15945060000013	249	248.9933666	249.497199100002	251.493457700002
72	6	12	target	20	Left	Left	LeftArrow	1	0.686980300000869	252.5	252.493356000003	252.997342800001	254.993103600002
