trial_id	block	trial	type	stim_id	cresp	resp	resp_raw	acc	rt	trial_start_time_expt	trial_start_time	stim_onset_time	stim_offset_time
1	1	1	filler	41	None			NaN	0	4	3.9934132999042	4.50498199998401	6.4951252999017
2	1	2	filler	42	None			NaN	0	7.5	7.51867469993886	8.00435599999037	9.99575109989382
3	1	3	distractor	5	Right	Right	RightArrow	1	2.19117809995078	11	11.0109842999373	11.5026682999451	13.4949144999264
4	1	4	target	43	Left	Left	LeftArrow	1	1.42521590006072	14.5	14.4933873999398	14.9987375999335	16.9934481999371
5	1	5	target	7	Left	Left	LeftArrow	1	1.42689140001312	18	17.9933751999633	18.5025664999848	20.4932755999034
6	1	6	distractor	6	Right	Right	RightArrow	1	1.53416240005754	21.5	21.4934005999239	22.001871699933	23.9931156999664
7	1	7	target	9	Left	Left	LeftArrow	1	1.37317220005207	25	24.9930114999879	25.5025395998964	27.4934351999545
8	1	8	distractor	45	Right	Right	RightArrow	1	1.54417900007684	28.5	28.4933642999968	29.0009070999222	30.993307699915
9	1	9	distractor	44	Right	Right	RightArrow	1	1.47033010004088	32	31.9935233999277	32.4983048998984	34.4937113999622
10	1	10	distractor	10	Right	Left	LeftArrow	0	1.47904320002999	35.5	35.4934332999401	35.9993534999667	37.9934031999437
11	1	11	target	46	Left	Right	RightArrow	0	0.943838299950585	39	38.9933227999136	39.4978977999417	41.4930070999544
12	1	12	target	8	Left	Left	LeftArrow	1	0.579044600017369	42.5	42.4933426999487	42.9975414999062	44.9933690999169
13	2	1	filler	51	None	Right	RightArrow	NaN	0.530690200044774	46	45.993351199897	46.5021173999412	48.4933360998984
14	2	2	filler	12	None			NaN	0	49.5	49.493379099993	50.0022739999695	51.9946741999593
15	2	3	distractor	14	Right	Right	RightArrow	1	0.810051699983887	53	53.0086718999082	53.5017387999687	55.4934114000062
16	2	4	distractor	47	Right	Left	LeftArrow	0	1.53192410001066	56.5	56.4934645999456	57.0006971999537	58.9934102999978
17	2	5	distractor	49	Right	Right	RightArrow	1	2.01431790005881	60	59.9930858999724	60.5017788999248	62.4955607999582
18	2	6	target	52	Left	Left	LeftArrow	1	0.995610199985094	63.5	63.4934461999219	64.0037868999643	65.9934570000041
19	2	7	target	50	Left	Left	LeftArrow	1	0.830588400014676	67	66.9933959000045	67.503104699892	69.4939519999316
20	2	8	target	48	Left	Left	LeftArrow	1	1.18004640005529	70.5	70.4936021999456	71.0030305999098	72.9933946999954
21	2	9	distractor	16	Right	Right	RightArrow	1	1.18272659997456	74	73.9934311999241	74.5024057999253	76.4934872000013
22	2	10	distractor	13	Right	Right	RightArrow	1	1.67109570000321	77.5	77.4935853999341	78.0014489999739	79.9934527999721
23	2	11	target	11	Left	Left	LeftArrow	1	1.30747659993358	81	80.993374099955	81.5023667999776	83.4930772999069
24	2	12	target	15	Left	Right	RightArrow	0	0.620083900052123	84.5	84.4933759999694	84.998052299954	86.9933485999936
25	3	1	filler	17	None	Left	LeftArrow	NaN	0.644966199994087	88	87.9930319999112	88.5017554999795	90.4934562999988
26	3	2	filler	57	None			NaN	0	91.5	91.4934573998908	91.9977018999634	93.997435899917
27	3	3	distractor	53	Right	Right	RightArrow	1	1.25402689992916	95	95.008072800003	95.500458399998	97.4934654999524
28	3	4	distractor	20	Right	Left	LeftArrow	0	0.577599599957466	98.5	98.4934661999578	99.002407199936	100.993325799936
29	3	5	target	58	Left	Right	RightArrow	0	0.647254300070927	102	101.992989599938	102.501866699895	104.493019399932
30	3	6	distractor	56	Right	Left	LeftArrow	0	0.0903674999717623	105.5	105.493814499932	106.000302099972	107.99313629989
31	3	7	target	55	Left	Left	LeftArrow	1	0.334822400007397	109	108.993436699966	109.499489699956	111.493354599923
32	3	8	distractor	21	Right	Right	RightArrow	1	0.728796700015664	112.5	112.493428299902	112.998793399893	114.993481599959
33	3	9	target	54	Left	Right	RightArrow	0	0.685764100053348	116	115.993382899906	116.499395199935	118.493394799996
34	3	10	target	22	Left	Left	LeftArrow	1	0.927858699928038	119.5	119.493021099945	119.99963169999	121.993460399914
35	3	11	distractor	19	Right	Right	RightArrow	1	1.05775190005079	123	122.993198399898	123.49783509993	125.493456900003
36	3	12	target	18	Left	Left	LeftArrow	1	0.994668199913576	126.5	126.493494599941	127.000504099997	128.993440099992
37	4	1	filler	24	None			NaN	0	130	129.993383899913	130.500156999915	132.494623899926
38	4	2	filler	63	None			NaN	0	133.5	133.508719399921	134.003520199913	135.997646100004
39	4	3	target	26	Left	Left	LeftArrow	1	0.867995800101198	137	137.008410599898	137.499604299897	139.493375699967
40	4	4	distractor	23	Right	Right	RightArrow	1	1.42893709999043	140.5	140.494083500002	141.00262179994	142.993447499932
41	4	5	distractor	59	Right	Left	LeftArrow	0	1.01941289997194	144	143.993418899947	144.49854099995	146.493422099971
42	4	6	target	27	Left	Right	RightArrow	0	1.00904010003433	147.5	147.493411899894	147.997816099902	149.993384599918
43	4	7	distractor	25	Right	Right	RightArrow	1	1.10648309998214	151	150.993448099936	151.500744199962	153.493474299903
44	4	8	target	28	Left			-1	0	154.5	154.493047799915	154.998604399967	156.995544199948
45	4	9	distractor	64	Right	Right	RightArrow	1	1.3217773999786	158	158.006102699903	158.497222599923	160.493368499912
46	4	10	distractor	62	Right			-1	0	161.5	161.493427699897	161.994849499897	163.997568899998
47	4	11	target	60	Left	Left	LeftArrow	1	1.29088559991214	165	165.006723799976	165.501618799986	167.493477399927
48	4	12	target	61	Left			-1	0	168.5	168.49346119992	168.999123499962	170.997788299923
49	5	1	filler	32	None			NaN	0	172	172.003234399948	172.501459699939	174.499262599973
50	5	2	filler	34	None			NaN	0	175.5	175.508790599997	175.998645699932	177.99502989999
51	5	3	target	31	Left	Right	RightArrow	0	1.0699243999552	179	179.004084599903	179.50224349997	181.493420999963
52	5	4	distractor	65	Right	Right	RightArrow	1	1.06719339999836	182.5	182.493408199982	182.998924199957	184.993408999988
53	5	5	distractor	68	Right	Left	LeftArrow	0	1.07779909996316	186	185.993438799982	186.498348099994	188.493414899916
54	5	6	distractor	30	Right			-1	0	189.5	189.493067499949	190.002012499957	191.997732599964
55	5	7	target	70	Left	Left	LeftArrow	1	1.24354069994297	193	193.00803659996	193.500501699978	195.493489399902
56	5	8	distractor	67	Right	Right	RightArrow	1	0.897073499974795	196.5	196.493048999924	197.001978999935	198.993427199894
57	5	9	target	66	Left			-1	0	200	199.99326639995	200.499472899945	202.499972599908
58	5	10	distractor	29	Right			-1	0	203.5	203.500231599901	203.997680399916	205.994282800006
59	5	11	target	69	Left			-1	0	207	207.007080599898	207.497631699895	209.496680399985
60	5	12	target	33	Left	Left	LeftArrow	1	1.57674659998156	210.5	210.505117199966	210.999725400005	212.993417499936
61	6	1	filler	38	None			NaN	0	214	213.993410700001	214.503126899945	216.499582599965
62	6	2	filler	37	None			NaN	0	217.5	217.505255999975	218.00346259994	219.997321199975
63	6	3	distractor	75	Right	Right	RightArrow	1	1.22191480000038	221	221.006237099995	221.501587799983	223.493280899944
64	6	4	target	36	Left	Left	LeftArrow	1	1.07752419996541	224.5	224.493367899908	224.995485499967	226.993458499899
65	6	5	target	76	Left	Right	RightArrow	0	1.24045539996587	228	227.993392599979	228.501473699929	230.493473299895
66	6	6	distractor	71	Right			-1	0	231.5	231.493398499908	231.999220800004	233.999203599989
67	6	7	target	74	Left	Left	LeftArrow	1	0.764925300027244	235	235.008927699993	235.498509699944	237.493437299971
68	6	8	target	73	Left	Right	RightArrow	0	1.11803140002303	238.5	238.493449999951	238.995969999931	240.993394499994
69	6	9	distractor	39	Right	Right	RightArrow	1	0.992986600031145	242	241.993367699906	242.50092729996	244.49348049995
70	6	10	distractor	40	Right	Right	RightArrow	1	0.911486699944362	245.5	245.493532799999	245.999246699968	247.993385799928
71	6	11	target	35	Left	Left	LeftArrow	1	0.856596300029196	249	248.993377899984	249.497264399892	251.493341299938
72	6	12	distractor	72	Right	Right	RightArrow	1	1.13621090003289	252.5	252.493285799981	252.998921599938	254.993403399945
