trial_id	block	trial	type	stim_id	cresp	resp	resp_raw	acc	rt	trial_start_time_expt	trial_start_time	stim_onset_time	stim_offset_time
1	1	1	filler	48	None			NaN	0	4	3.99349440005608	4.53902939986438	6.4948458999861
2	1	2	filler	68	None			NaN	0	7.5	7.51299569988623	8.04161519999616	9.99556509987451
3	1	3	target	46	Left	Left	LeftArrow	1	1.81331530003808	11	11.0070168999955	11.5391243998893	13.4934288000222
4	1	4	distractor	47	Right	Right	RightArrow	1	1.51010970002972	14.5	14.4934392999858	15.0391516999807	16.9935264999513
5	1	5	distractor	26	Right	Right	RightArrow	1	2.03557449998334	18	17.9935383999255	18.5397647998761	20.4981587000657
6	1	6	distractor	27	Right	Left	LeftArrow	0	1.80914609995671	21.5	21.4937756999861	22.0408290999476	23.9934703998733
7	1	7	distractor	5	Right	Right	RightArrow	1	1.79591899993829	25	24.9934721000027	25.5393042999785	27.4934191999491
8	1	8	target	25	Left	Left	LeftArrow	1	1.6466154998634	28.5	28.4934004999232	29.0367854000069	30.9934000000358
9	1	9	target	4	Left	Right	RightArrow	0	1.90869870013557	32	31.9934813000727	32.5399008998647	34.493403899949
10	1	10	distractor	69	Right	Right	RightArrow	1	2.31635540002026	35.5	35.4934634999372	36.0336688999087	37.994150799932
11	1	11	target	6	Left	Left	LeftArrow	1	1.90786510007456	39	38.9936569000129	39.5402311999351	41.4933986999094
12	1	12	target	67	Left	Right	RightArrow	0	1.83684629993513	42.5	42.4934787999373	43.0364723000675	44.9934952000622
13	2	1	filler	9	None			NaN	0	46	45.9934079998638	46.5039885998704	48.4982406999916
14	2	2	filler	30	None			NaN	0	49.5	49.5053813999984	50.0392314998899	51.9943407999817
15	2	3	target	7	Left	Left	LeftArrow	1	0.941749599995092	53	53.0078183000442	53.5397878999356	55.493461899925
16	2	4	target	28	Left	Left	LeftArrow	1	2.62833090010099	56.5	56.493481699843	57.0378588999156	58.9971056999639
17	2	5	distractor	71	Right	Right	RightArrow	1	2.64225409994833	60	59.9934439999051	60.5362772999797	62.4955066998955
18	2	6	target	29	Left	Left	LeftArrow	1	1.86604909994639	63.5	63.4933803998865	64.0409961999394	65.9934074999765
19	2	7	distractor	8	Right			-1	0	67	66.9933017999865	67.5366843999363	69.5009148998652
20	2	8	distractor	72	Right	Right	RightArrow	1	1.47495720000006	70.5	70.5059865000658	70.9984828999732	72.9933753998484
21	2	9	distractor	50	Right	Right	RightArrow	1	1.50213390006684	74	73.9933416999411	74.5044306998607	76.4934761000331
22	2	10	target	70	Left	Left	LeftArrow	1	1.90354279987514	77.5	77.4934235999826	78.0023101000115	79.9938348999713
23	2	11	target	49	Left	Left	LeftArrow	1	1.77049329993315	81	80.9934298999142	81.5352614999283	83.4933877000585
24	2	12	distractor	51	Right	Left	LeftArrow	0	1.72189319995232	84.5	84.4931880000513	84.9980828999542	86.9934928000439
25	3	1	filler	31	None			NaN	0	88	87.9934864998795	88.4998105999548	90.4945769000333
26	3	2	filler	10	None			NaN	0	91.5	91.5050768000074	92.0393032999709	93.9955859000329
27	3	3	distractor	53	Right	Right	RightArrow	1	1.31170219997875	95	95.0045280000195	95.501307999948	97.4931310999673
28	3	4	target	12	Left	Right	RightArrow	0	2.68933239998296	98.5	98.4934173999354	99.0396195999347	100.996469399892
29	3	5	distractor	74	Right	Left	LeftArrow	0	1.78004560014233	102	101.993492699927	102.538131699897	104.493449599948
30	3	6	target	11	Left	Right	RightArrow	0	2.06461580004543	105.5	105.493494200055	106.037895499961	107.999086699914
31	3	7	target	75	Left	Left	LeftArrow	1	1.51882629981264	109	108.993553200038	109.533475300064	111.493543999968
32	3	8	distractor	54	Right	Right	RightArrow	1	1.97956550004892	112.5	112.493540700059	113.000574599952	114.993276299909
33	3	9	distractor	32	Right	Left	LeftArrow	0	2.0315443999134	116	115.993709200062	116.493403000059	118.497881700052
34	3	10	target	52	Left	Right	RightArrow	0	1.30130029981956	119.5	119.49346040003	120.037831000052	121.993422699859
35	3	11	target	33	Left	Left	LeftArrow	1	2.15624029980972	123	122.993369699921	123.536747900071	125.494092700072
36	3	12	distractor	73	Right	Left	LeftArrow	0	1.89429969992489	126.5	126.493447399931	127.00493220007	128.993431299925
37	4	1	filler	13	None			NaN	0	130	129.993081799941	130.536970899906	132.4933515999
38	4	2	filler	14	None			NaN	0	133.5	133.501809299923	134.000108799897	135.996839900035
39	4	3	target	15	Left	Left	LeftArrow	1	1.2415861999616	137	137.008442600025	137.536424200051	139.493501099991
40	4	4	distractor	56	Right	Right	RightArrow	1	1.17232199991122	140.5	140.493398600025	141.002403300023	142.993386599934
41	4	5	distractor	76	Right	Right	RightArrow	1	2.18478219979443	144	143.993463200051	144.534865400055	146.494341499871
42	4	6	target	55	Left	Right	RightArrow	0	1.88486679992639	147.5	147.493325399933	148.002823899966	149.993433499942
43	4	7	target	78	Left	Left	LeftArrow	1	2.03702690009959	151	150.993629100034	151.537475399906	153.496047999943
44	4	8	distractor	36	Right	Right	RightArrow	1	1.90548099996522	154.5	154.493433400057	155.039618900046	156.99336740002
45	4	9	target	77	Left	Left	LeftArrow	1	2.08150979992934	158	157.993442900013	158.536981299985	160.497264599893
46	4	10	target	35	Left	Right	RightArrow	0	1.65624369983561	161.5	161.493399299914	162.035246100044	163.993156499928
47	4	11	distractor	34	Right	Left	LeftArrow	0	1.54740260005929	165	164.993484099861	165.499250199879	167.493451799965
48	4	12	distractor	57	Right			-1	0	168.5	168.493444700027	168.996453299886	170.996675200062
49	5	1	filler	58	None			NaN	0	172	172.003572999965	172.498922100058	174.495934600011
50	5	2	filler	81	None			NaN	0	175.5	175.510055399965	175.999665299896	177.99733719998
51	5	3	target	60	Left	Left	LeftArrow	1	1.51086299982853	179	179.0053357	179.533885800047	181.493527099956
52	5	4	target	80	Left	Left	LeftArrow	1	1.40757900010794	182.5	182.493506799918	183.034579899861	184.993516199989
53	5	5	distractor	18	Right	Left	LeftArrow	0	1.79022239986807	186	185.993045700016	186.535981500056	188.493411799893
54	5	6	distractor	16	Right	Right	RightArrow	1	1.79320009984076	189.5	189.493325700052	189.993357700063	191.993987599853
55	5	7	distractor	39	Right	Left	LeftArrow	0	1.58183800010011	193	192.993458499899	193.540509599959	195.493419100065
56	5	8	target	17	Left	Right	RightArrow	0	2.01291379984468	196.5	196.493298699846	197.041646600002	198.997007099912
57	5	9	target	38	Left	Left	LeftArrow	1	1.37640929990448	200	199.993420799961	200.539208899951	202.493508599931
58	5	10	distractor	59	Right	Right	RightArrow	1	1.8587340998929	203.5	203.493453699863	204.036954300012	205.993527399842
59	5	11	target	37	Left	Left	LeftArrow	1	0.93795739999041	207	206.993406499969	207.5342925	209.493518800009
60	5	12	distractor	79	Right	Right	RightArrow	1	1.90923430002294	210.5	210.493390199961	211.035772099858	212.99339139997
61	6	1	filler	21	None			NaN	0	214	213.993541700067	214.539976599859	216.495818099938
62	6	2	filler	40	None			NaN	0	217.5	217.50917929993	218.037869699998	219.994325199863
63	6	3	target	20	Left	Left	LeftArrow	1	2.18208659999073	221	221.008975999895	221.539352899883	223.495219500037
64	6	4	distractor	62	Right	Right	RightArrow	1	1.33941269991919	224.5	224.493445300031	225.038841699949	226.99338479992
65	6	5	distractor	82	Right			-1	0	228	227.993460499914	228.503055299865	230.499340999871
66	6	6	target	61	Left			-1	0	231.5	231.503193099983	231.999859399861	233.996163799893
67	6	7	target	83	Left			-1	0	235	235.00396579993	235.53882749984	237.49942820007
68	6	8	target	63	Left	Right	RightArrow	0	2.03177859983407	238.5	238.505368300015	239.000571300043	240.998516199877
69	6	9	target	84	Left	Left	LeftArrow	1	1.34152369992808	242	241.993540399941	242.500150999986	244.493488000007
70	6	10	distractor	41	Right	Left	LeftArrow	0	1.17385939997621	245.5	245.493453099858	246.042205600068	247.993230199907
71	6	11	distractor	42	Right	Right	RightArrow	1	1.79119160003029	249	248.993528099963	249.535258000018	251.493476599921
72	6	12	distractor	19	Right			-1	0	252.5	252.493390299845	253.041144999908	254.994217299856
