trial_id	block	trial	type	stim_id	cresp	resp	resp_raw	acc	rt	trial_start_time_expt	trial_start_time	stim_onset_time	stim_offset_time
1	1	1	filler	41	None			NaN	0	4	3.99390499998117	4.50388609996298	6.49967009999091
2	1	2	filler	42	None			NaN	0	7.5	7.5072388999979	8.00086429994553	9.99814609996974
3	1	3	distractor	5	Right	Left	LeftArrow	0	1.1986762000015	11	11.0129742999561	11.4934090999886	13.4934709999943
4	1	4	target	43	Left	Left	LeftArrow	1	2.13551769999322	14.5	14.4934686999768	15.0035970999743	16.9968709999812
5	1	5	target	7	Left			-1	0	18	17.9934791999985	18.5013953999733	20.4936866999487
6	1	6	distractor	6	Right	Left	LeftArrow	0	0.746790000004694	21.5	21.5061765999999	22.00034769997	23.9934527999721
7	1	7	target	9	Left	Left	LeftArrow	1	0.674117500020657	25	24.9934667999623	25.5013238999527	27.4934496999485
8	1	8	distractor	45	Right	Left	LeftArrow	0	1.0930195999681	28.5	28.4934705999913	29.000778799993	30.9934415000025
9	1	9	distractor	44	Right	Right	RightArrow	1	0.936988200002816	32	31.9934192999499	32.5018176999874	34.4935910999775
10	1	10	distractor	10	Right	Left	LeftArrow	0	1.65548479999416	35.5	35.4930375999538	36.00046869996	37.9930194999906
11	1	11	target	46	Left	Right	RightArrow	0	0.986647199955769	39	38.9934555999935	39.4974001999944	41.4933785999892
12	1	12	target	8	Left	Left	LeftArrow	1	0.461733700009063	42.5	42.4933829999645	42.998528999975	44.9932805999997
13	2	1	filler	51	None	Left	LeftArrow	NaN	1.01035420002881	46	45.9930703999707	46.5055687999702	48.4934644000023
14	2	2	filler	12	None	Right	RightArrow	NaN	1.51601339998888	49.5	49.493449499947	50.0038014999591	51.9932101999875
15	2	3	distractor	14	Right	Right	RightArrow	1	1.58717980002984	53	52.9934715999989	53.5001699999557	55.493453299976
16	2	4	distractor	47	Right	Left	LeftArrow	0	0.786994799971581	56.5	56.4934568999452	57.002407299995	58.9934435999603
17	2	5	distractor	49	Right	Left	LeftArrow	0	1.11295910004992	60	59.9934477999923	60.5036620999454	62.4934709999943
18	2	6	target	52	Left	Left	LeftArrow	1	0.974254000000656	63.5	63.492970799969	64.0000209999853	65.9933135999599
19	2	7	target	50	Left	Left	LeftArrow	1	1.21795909997309	67	66.9934711999958	67.4991047999938	69.4934711999958
20	2	8	target	48	Left	Left	LeftArrow	1	0.492230400035623	70.5	70.4934280999587	70.9999409999582	72.9935270999558
21	2	9	distractor	16	Right	Right	RightArrow	1	0.884449500008486	74	73.9933985999669	74.5022945999517	76.4933193999459
22	2	10	distractor	13	Right	Right	RightArrow	1	0.844465800037142	77.5	77.4930423999904	78.0008209999651	79.9934042999521
23	2	11	target	11	Left	Left	LeftArrow	1	0.517258700041566	81	80.9934175999952	81.5000929999514	83.4934263999457
24	2	12	target	15	Left	Right	RightArrow	0	2.130881900026	84.5	84.4931969999452	84.9995671999641	86.9997322999989
25	3	1	filler	17	None	Left	LeftArrow	NaN	0.70598940004129	88	87.9934560999973	88.503396599961	90.4934443999664
26	3	2	filler	57	None	Right	RightArrow	NaN	1.37144269997953	91.5	91.4934422999504	92.0037729999749	93.9934410999995
27	3	3	distractor	53	Right	Right	RightArrow	1	1.32354620000115	95	94.9933901999611	95.4978204999934	97.4934380999766
28	3	4	distractor	20	Right	Left	LeftArrow	0	0.869965299963951	98.5	98.4934522999683	99.0023150999914	100.993442599953
29	3	5	target	58	Left	Right	RightArrow	0	1.36662749998504	102	101.993449199945	102.499338999973	104.493450899958
30	3	6	distractor	56	Right	Right	RightArrow	1	1.60497280000709	105.5	105.493585499993	105.998759299982	107.993599599984
31	3	7	target	55	Left	Left	LeftArrow	1	1.00266180001199	109	108.993157699995	109.50311629998	111.493494399998
32	3	8	distractor	21	Right	Right	RightArrow	1	1.36268220003694	112.5	112.493327899952	112.999535999959	114.993413399963
33	3	9	target	54	Left	Left	LeftArrow	1	0.402899399981834	116	115.993415999983	116.499232399976	118.493461899983
34	3	10	target	22	Left	Right	RightArrow	0	0.083982800017111	119.5	119.493037499953	119.999385599978	121.993261799973
35	3	11	distractor	19	Right	Left	LeftArrow	0	1.0418732999824	123	122.99302449997	123.498607299989	125.493444499967
36	3	12	target	18	Left	Left	LeftArrow	1	0.810457199986558	126.5	126.493442999956	127.00129689998	128.993449599948
37	4	1	filler	24	None	Left	LeftArrow	NaN	0.828811000043061	130	129.993368499971	130.501124299946	132.493254499976
38	4	2	filler	63	None	Right	RightArrow	NaN	0.576688700006343	133.5	133.493350699951	133.99961519998	135.993409899995
39	4	3	target	26	Left	Left	LeftArrow	1	0.492302600003313	137	136.993472100003	137.500566099945	139.493444299966
40	4	4	distractor	23	Right	Left	LeftArrow	0	0.858001400018111	140.5	140.493470099987	141.000375199947	142.993112700002
41	4	5	distractor	59	Right	Right	RightArrow	1	1.89947090001078	144	143.993542199954	144.501193899952	146.493704399967
42	4	6	target	27	Left	Left	LeftArrow	1	0.855159799975809	147.5	147.493369399977	148.001398599998	149.993413299962
43	4	7	distractor	25	Right	Left	LeftArrow	0	0.887962299981155	151	150.993451699964	151.501635099994	153.493421399966
44	4	8	target	28	Left	Left	LeftArrow	1	0.834668299998157	154.5	154.493854499946	154.997023199976	156.993467599968
45	4	9	distractor	64	Right	Right	RightArrow	1	1.3847928000032	158	157.993464200001	158.502989599947	160.493349099997
46	4	10	distractor	62	Right	Right	RightArrow	1	1.47646189999068	161.5	161.493467399967	161.999216199969	163.993463399995
47	4	11	target	60	Left	Left	LeftArrow	1	0.835469600046054	165	164.993466299959	165.501835599949	167.493438699981
48	4	12	target	61	Left	Left	LeftArrow	1	0.512453600007575	168.5	168.493237899966	168.998412699963	170.993468599976
49	5	1	filler	32	None	Right	RightArrow	NaN	0.739417299977504	172	171.993370599987	172.501938599977	174.493456299999
50	5	2	filler	34	None	Left	LeftArrow	NaN	1.42209549999097	175.5	175.493461399979	176.003775899997	177.992994399974
51	5	3	target	31	Left	Right	RightArrow	0	1.47900180000579	179	178.993383299967	179.502250899968	181.494002799969
52	5	4	distractor	65	Right	Right	RightArrow	1	1.11536729999352	182.5	182.493514199974	183.001016900002	184.993403799948
53	5	5	distractor	68	Right	Left	LeftArrow	0	0.778973100008443	186	185.993419899954	186.499061099952	188.493005799945
54	5	6	distractor	30	Right	Right	RightArrow	1	0.841510600002948	189.5	189.493452699971	190.000656199991	191.99335439998
55	5	7	target	70	Left	Right	RightArrow	0	1.33589889999712	193	192.993283099961	193.496978499985	195.493461999984
56	5	8	distractor	67	Right	Left	LeftArrow	0	0.866407800000161	196.5	196.492949799984	197.000767599966	198.993029699952
57	5	9	target	66	Left	Left	LeftArrow	1	0.929392299964093	200	199.993474699964	200.498393999995	202.493441999948
58	5	10	distractor	29	Right	Right	RightArrow	1	0.884412299958058	203.5	203.493473599956	203.998432399996	205.993435399956
59	5	11	target	69	Left	Left	LeftArrow	1	0.464603999978863	207	206.992949699983	207.49722249998	209.493455299991
60	5	12	target	33	Left	Right	RightArrow	0	0.594748199975584	210.5	210.493451599963	211.00042419997	212.993540999945
61	6	1	filler	38	None	Left	LeftArrow	NaN	0.660679299966432	214	213.993478199991	214.505090199993	216.493414899975
62	6	2	filler	37	None	Left	LeftArrow	NaN	0.867340800003149	217.5	217.493745399988	217.998855299957	219.993264299992
63	6	3	distractor	75	Right	Left	LeftArrow	0	1.36176200001501	221	220.993413699965	221.50156449998	223.493437499972
64	6	4	target	36	Left	Right	RightArrow	0	1.31013330002315	224.5	224.493430499977	225.000148399966	226.993407799979
65	6	5	target	76	Left	Left	LeftArrow	1	0.772579699987546	228	227.99346909998	228.500223999959	230.493365699949
66	6	6	distractor	71	Right	Right	RightArrow	1	0.512886599986814	231.5	231.493143399945	232.002358599973	233.993457799952
67	6	7	target	74	Left	Right	RightArrow	0	0.528145199990831	235	234.993498999975	235.497100399982	237.493381899956
68	6	8	target	73	Left	Right	RightArrow	0	0.817785399965942	238.5	238.493476899981	239.001878699986	240.99344229995
69	6	9	distractor	39	Right	Right	RightArrow	1	1.16243909997866	242	241.993453299976	242.503512099967	244.493453999981
70	6	10	distractor	40	Right	Left	LeftArrow	0	1.14842839998892	245.5	245.493382799963	246.000181499985	247.993294099986
71	6	11	target	35	Left	Left	LeftArrow	1	1.78181860002223	249	248.993466899963	249.49992729997	251.492975399946
72	6	12	distractor	72	Right	Right	RightArrow	1	1.03600970003754	252.5	252.493579100003	253.001208299946	254.993436599965
