trial_id	block	trial	type	stim_id	cresp	resp	resp_raw	acc	rt	trial_start_time_expt	trial_start_time	stim_onset_time	stim_offset_time
1	1	1	filler	41	None			NaN	0	4	3.99347960000159	4.50069369999983	6.49573080000118
2	1	2	filler	42	None	Left	LeftArrow	NaN	1.35030440000992	7.5	7.50079340000229	8.00282660000084	9.9934620000131
3	1	3	distractor	5	Right	Right	RightArrow	1	0.866076499994961	11	10.9934326000075	11.5030973000103	13.4934189000051
4	1	4	target	43	Left	Left	LeftArrow	1	0.808050300009199	14.5	14.4934197000111	14.9990160000016	16.9934008000128
5	1	5	target	7	Left	Right	RightArrow	0	0.827827699991758	18	17.9933930000116	18.5026657000126	20.4934135000076
6	1	6	distractor	6	Right	Right	RightArrow	1	1.06575399999565	21.5	21.4934852000006	22.0004775000125	23.9934959000093
7	1	7	target	9	Left	Right	RightArrow	0	0.638090100008412	25	24.9933528000111	25.4981027000031	27.4934005000105
8	1	8	distractor	45	Right	Left	LeftArrow	0	1.20071540000208	28.5	28.4932719000062	29.001566100007	30.9930342000007
9	1	9	distractor	44	Right	Left	LeftArrow	0	1.42163850000361	32	31.9933740000124	32.4980059000081	34.4934221000003
10	1	10	distractor	10	Right	Right	RightArrow	1	0.913120600002003	35.5	35.4934104999993	35.9988982000068	37.9934551000042
11	1	11	target	46	Left	Left	LeftArrow	1	1.01031589999911	39	38.9931533000054	39.5004367000074	41.4934991000046
12	1	12	target	8	Left	Right	RightArrow	0	1.38330430000497	42.5	42.4934860000067	43.0024864000006	44.9934910000011
13	2	1	filler	51	None			NaN	0	46	45.9934605000017	46.50533	48.4956441000104
14	2	2	filler	12	None	Right	RightArrow	NaN	0.670516900005168	49.5	49.5063615000108	50.0010732000082	51.9934470000007
15	2	3	distractor	14	Right	Left	LeftArrow	0	1.99052660001325	53	52.9933950000122	53.5008808999992	55.4948767000024
16	2	4	distractor	47	Right	Left	LeftArrow	0	0.723109200000181	56.5	56.493518000003	57.0031108000112	58.9935395000066
17	2	5	distractor	49	Right	Right	RightArrow	1	1.38619480001216	60	59.9933937000023	60.4974065999995	62.4934295999992
18	2	6	target	52	Left	Left	LeftArrow	1	1.43156489999092	63.5	63.4933900000033	64.0025051000121	65.993331900012
19	2	7	target	50	Left	Right	RightArrow	0	0.59140479999769	67	66.9933561000071	67.499493100011	69.493384100002
20	2	8	target	48	Left	Left	LeftArrow	1	0.638263600005303	70.5	70.4933806000045	70.9985474999994	72.9933948000107
21	2	9	distractor	16	Right	Left	LeftArrow	0	1.29615239999839	74	73.9931184000015	74.5013610000024	76.4934108000016
22	2	10	distractor	13	Right	Right	RightArrow	1	1.08539610001026	77.5	77.4934519000089	78.0026889000001	79.993395700003
23	2	11	target	11	Left	Right	RightArrow	0	1.45785890000116	81	80.9934710000089	81.497755400007	83.4934515000059
24	2	12	target	15	Left	Left	LeftArrow	1	1.32857399999921	84.5	84.4933910000109	84.9978355000057	86.9932745000115
25	3	1	filler	17	None			NaN	0	88	87.9934895000042	88.5027407000016	90.4938223000063
26	3	2	filler	57	None			NaN	0	91.5	91.506195000009	92.0005023000122	93.9952272000082
27	3	3	distractor	53	Right	Right	RightArrow	1	1.94021460000658	95	95.0047990000021	95.502384899999	97.4935848000023
28	3	4	distractor	20	Right	Left	LeftArrow	0	1.50295910000568	98.5	98.4934452000016	99.0003239000071	100.993438500009
29	3	5	target	58	Left	Left	LeftArrow	1	1.56710850000673	102	101.993458200013	102.498127700004	104.493399300001
30	3	6	distractor	56	Right	Left	LeftArrow	0	0.644404399994528	105.5	105.493387900002	105.998903700005	107.993278200011
31	3	7	target	55	Left	Left	LeftArrow	1	1.06627020001179	109	108.993515500013	109.503503	111.4934966
32	3	8	distractor	21	Right	Left	LeftArrow	0	1.45530409998901	112.5	112.493420800005	112.99938980001	114.993401500004
33	3	9	target	54	Left	Left	LeftArrow	1	1.56596890000219	116	115.993393299999	116.501267400003	118.493489200002
34	3	10	target	22	Left	Left	LeftArrow	1	1.18204600000172	119.5	119.493189300003	119.999636200009	121.993461000005
35	3	11	distractor	19	Right	Left	LeftArrow	0	1.49223459999484	123	122.993439100013	123.502818100009	125.493419000006
36	3	12	target	18	Left	Left	LeftArrow	1	0.916005100007169	126.5	126.493403	127.001124100003	128.993270999999
37	4	1	filler	24	None			NaN	0	130	129.993461300008	130.5029622	132.497585600009
38	4	2	filler	63	None			NaN	0	133.5	133.505066400001	133.998021899999	135.998317000005
39	4	3	target	26	Left	Left	LeftArrow	1	1.97551849999581	137	137.008377700011	137.502270200013	139.493385500013
40	4	4	distractor	23	Right	Left	LeftArrow	0	1.24965269998938	140.5	140.4933781	141.001670000012	142.993497600008
41	4	5	distractor	59	Right	Right	RightArrow	1	0.965608600003179	144	143.993520000004	144.5016607	146.493086600007
42	4	6	target	27	Left	Left	LeftArrow	1	1.13289200000872	147.5	147.493423800013	147.996803100003	149.993242299999
43	4	7	distractor	25	Right			-1	0	151	150.99341190001	151.49979110001	153.4984635
44	4	8	target	28	Left	Right	RightArrow	0	1.04933780001011	154.5	154.504080500003	154.9981921	156.993446500011
45	4	9	distractor	64	Right			-1	0	158	157.993498100011	158.496685700011	160.497305299999
46	4	10	distractor	62	Right	Left	LeftArrow	0	1.21574149999651	161.5	161.505602500009	162.001445200003	163.993507700012
47	4	11	target	60	Left	Right	RightArrow	0	1.19994740000402	165	164.993538499999	165.500406200008	167.493971300006
48	4	12	target	61	Left			-1	0	168.5	168.493557300011	169.001306700011	170.99838460001
49	5	1	filler	32	None			NaN	0	172	172.009131500003	172.502807600002	174.497661500005
50	5	2	filler	34	None			NaN	0	175.5	175.504234000007	176.003841500002	177.999101699999
51	5	3	target	31	Left			-1	0	179	179.00535430001	179.500772500003	181.496894399999
52	5	4	distractor	65	Right	Left	LeftArrow	0	1.5238917000097	182.5	182.507015400013	183.001966399999	184.99349790001
53	5	5	distractor	68	Right	Left	LeftArrow	0	1.18218139999954	186	185.993378400002	186.501719899999	188.493478900011
54	5	6	distractor	30	Right	Right	RightArrow	1	1.27395719999913	189.5	189.493385900001	190.002949000002	191.99345780001
55	5	7	target	70	Left	Left	LeftArrow	1	1.02078579999215	193	192.993485200001	193.500798300011	195.493410800002
56	5	8	distractor	67	Right	Left	LeftArrow	0	0.939177100008237	196.5	196.493393600002	197.002750700005	198.993458200013
57	5	9	target	66	Left	Left	LeftArrow	1	1.2505594999966	200	199.993508500003	200.502196900008	202.493463999999
58	5	10	distractor	29	Right			-1	0	203.5	203.493783900005	204.00139830001	205.999366500007
59	5	11	target	69	Left	Left	LeftArrow	1	0.774205100009567	207	207.005589200009	207.498515600004	209.493356900013
60	5	12	target	33	Left			-1	0	210.5	210.493372500001	210.997976900006	212.997601300012
61	6	1	filler	38	None			NaN	0	214	214.004123999999	214.502628600007	216.495977300001
62	6	2	filler	37	None			NaN	0	217.5	217.505690700011	217.9983144	219.998383000013
63	6	3	distractor	75	Right	Left	LeftArrow	0	1.17962159999297	221	221.009652600012	221.497877800008	223.493494800001
64	6	4	target	36	Left	Right	RightArrow	0	1.90976720000617	224.5	224.493398200008	225.000879300002	226.993371500008
65	6	5	target	76	Left	Left	LeftArrow	1	1.5057084	228	227.9935042	228.499808400011	230.4934373
66	6	6	distractor	71	Right	Left	LeftArrow	0	1.38201359999948	231.5	231.493488800013	231.999893200002	233.993492100009
67	6	7	target	74	Left	Left	LeftArrow	1	0.634075199996005	235	234.99347500001	235.496948900007	237.493401900007
68	6	8	target	73	Left	Left	LeftArrow	1	0.61796710001363	238.5	238.493996400008	239.001228699999	240.993420600003
69	6	9	distractor	39	Right	Left	LeftArrow	0	2.20918419999362	242	241.993460000012	242.497853100009	244.499419
70	6	10	distractor	40	Right	Left	LeftArrow	0	1.04689889999281	245.5	245.493086600007	246.00206530001	247.993441800005
71	6	11	target	35	Left	Right	RightArrow	0	1.18718730000546	249	248.993406100009	249.501326400001	251.493066800002
72	6	12	distractor	72	Right	Left	LeftArrow	0	0.892949200002477	252.5	252.493071100005	253.0037705	254.993477200012
