trial_id	block	trial	type	stim_id	cresp	resp	resp_raw	acc	rt	trial_start_time_expt	trial_start_time	stim_onset_time	stim_offset_time
1	1	1	filler	5	None			NaN	0	4	3.99337500002002	4.52085349999834	6.49432469997555
2	1	2	filler	25	None			NaN	0	7.5	7.52054529997986	8.00513270002557	9.99683820002247
3	1	3	target	4	Left	Left	LeftArrow	1	1.75540140003432	11	11.0088182999752	11.5029342999915	13.4933674000204
4	1	4	target	27	Left	Left	LeftArrow	1	1.22317740001017	14.5	14.4934337000013	14.9988391000079	16.9934279000154
5	1	5	target	6	Left	Left	LeftArrow	1	1.30626990000019	18	17.9933105999953	18.4953383000102	20.4938859000104
6	1	6	distractor	48	Right	Right	RightArrow	1	1.21388090000255	21.5	21.4932971000089	21.9978793999762	23.993318199995
7	1	7	distractor	46	Right	Left	LeftArrow	0	2.23505909997039	25	24.9933950999985	25.4998097000062	27.4940653999802
8	1	8	target	47	Left	Left	LeftArrow	1	1.3372199999867	28.5	28.4933258999954	28.9985668000299	30.9933547999826
9	1	9	distractor	26	Right			-1	0	32	31.9933826000197	32.5008913999773	34.498115000024
10	1	10	distractor	67	Right	Right	RightArrow	1	1.76862119999714	35.5	35.5089019000297	35.9999607999926	37.993358000007
11	1	11	distractor	68	Right	Right	RightArrow	1	1.83998520002933	39	38.9932682000217	39.5016360000009	41.4933529000264
12	1	12	target	69	Left	Left	LeftArrow	1	0.852611000009347	42.5	42.4930108999833	42.9976758999983	44.9928708000225
13	2	1	filler	30	None	Right	RightArrow	NaN	1.11667810002109	46	45.9933600000222	46.498950499983	48.4940637000254
14	2	2	filler	49	None	Right	RightArrow	NaN	2.7292578999768	49.5	49.4934398999903	49.9993433000054	51.9956567999907
15	2	3	distractor	71	Right	Right	RightArrow	1	1.66454060003161	53	52.9934053000179	53.496480199974	55.4939717000234
16	2	4	distractor	8	Right	Right	RightArrow	1	1.85943479998969	56.5	56.4932187999948	57.0016345999902	58.9933855999843
17	2	5	target	72	Left			-1	0	60	59.9929283999954	60.498119099997	62.4975838999962
18	2	6	target	7	Left	Right	RightArrow	0	2.48230040003546	63.5	63.500712500012	63.9964206999866	65.9993233000278
19	2	7	distractor	50	Right	Left	LeftArrow	0	1.27706370002124	67	66.9934671000228	67.5008474999922	69.4932600000175
20	2	8	target	9	Left	Right	RightArrow	0	1.98594319995027	70.5	70.4933950999985	71.0001029000268	72.9931595000089
21	2	9	target	51	Left	Right	RightArrow	0	1.49087969999528	74	73.993439199985	74.4992138000089	76.4934164999868
22	2	10	distractor	29	Right	Right	RightArrow	1	1.59317430004012	77.5	77.4933443000191	77.9988732999773	79.9930909000104
23	2	11	distractor	70	Right	Both	LeftArrow|RightArrow	0	0.560610899992753	81	80.9933741000132	81.5018120000022	83.4936030000099
24	2	12	target	28	Left	Right	RightArrow	0	1.57819919998292	84.5	84.4934507000144	85.0012483000173	86.9933854999836
25	3	1	filler	33	None			NaN	0	88	87.9933947999962	88.4989676999976	90.495416300022
26	3	2	filler	54	None	Right	RightArrow	NaN	1.30706329998793	91.5	91.5104538999731	91.9972953000106	93.993418500002
27	3	3	distractor	75	Right	Right	RightArrow	1	0.585186600044835	95	94.9933811000083	95.4989423999796	97.4933822000166
28	3	4	distractor	10	Right	Left	LeftArrow	0	0.475739500019699	98.5	98.4933306999737	98.9981698999763	100.993363099988
29	3	5	target	73	Left	Right	RightArrow	0	1.40061329997843	102	101.993358200009	102.496491500002	104.493324299983
30	3	6	target	12	Left	Right	RightArrow	0	1.8002606999944	105.5	105.493033599982	105.998671500012	107.993350200006
31	3	7	target	74	Left	Left	LeftArrow	1	0.531249399995431	109	108.9934182	109.49829790002	111.493352600024
32	3	8	distractor	53	Right	Right	RightArrow	1	1.91598490002798	112.5	112.493473300012	112.998102299985	114.993343400012
33	3	9	distractor	32	Right	Left	LeftArrow	0	1.37062990001868	116	115.993398400024	116.499440199987	118.493312300008
34	3	10	target	52	Left	Left	LeftArrow	1	1.05932639999082	119.5	119.493477399985	120.001417900028	121.993506399973
35	3	11	target	31	Left	Right	RightArrow	0	0.391105999995489	123	122.993458400015	123.501841299993	125.493429300026
36	3	12	distractor	11	Right	Right	RightArrow	1	1.30070429999614	126.5	126.494010300026	126.997884400014	128.993313600018
37	4	1	filler	56	None	Right	RightArrow	NaN	1.12309389997972	130	129.992984700017	130.499221700011	132.493399100029
38	4	2	filler	55	None	Right	RightArrow	NaN	1.03306540002814	133.5	133.493354099977	133.997650999983	135.99343480001
39	4	3	distractor	13	Right	Right	RightArrow	1	1.07491790002678	137	136.993347499985	137.498246499978	139.493037700013
40	4	4	distractor	14	Right	Right	RightArrow	1	0.781385300040711	140.5	140.493389400013	140.999858999974	142.993352200021
41	4	5	distractor	78	Right	Right	RightArrow	1	1.18984030000865	144	143.993339099979	144.497921300004	146.4933418
42	4	6	target	15	Left	Left	LeftArrow	1	1.10619459999725	147.5	147.493445699976	148.001534199982	149.993437699974
43	4	7	target	76	Left	Left	LeftArrow	1	1.63279669999611	151	150.993436600023	151.5003364	153.493440399994
44	4	8	distractor	36	Right			-1	0	154.5	154.493422100029	155.001445800008	156.994606400025
45	4	9	target	77	Left	Left	LeftArrow	1	1.05198360001668	158	158.008954700024	158.498072699993	160.493541000003
46	4	10	target	35	Left	Left	LeftArrow	1	2.12617299996782	161.5	161.493373300007	162.001563300029	163.996421999997
47	4	11	distractor	57	Right	Right	RightArrow	1	1.35287669999525	165	164.993399000028	165.500624699984	167.493293699983
48	4	12	target	34	Left	Right	RightArrow	0	1.89767380000558	168.5	168.493398400024	168.997548200015	170.993219600001
49	5	1	filler	58	None			NaN	0	172	171.993351600016	172.49722249998	174.499178200029
50	5	2	filler	18	None			NaN	0	175.5	175.51004860003	176.001112100028	177.996418000024
51	5	3	target	60	Left	Left	LeftArrow	1	2.59844269999303	179	179.007558799989	179.49678039999	181.496076699987
52	5	4	target	16	Left	Left	LeftArrow	1	1.71092769998359	182.5	182.493421300023	183.001489999995	184.993454199983
53	5	5	distractor	80	Right	Right	RightArrow	1	1.01883970003109	186	185.993433800002	186.498597599973	188.493348699994
54	5	6	target	17	Left	Left	LeftArrow	1	1.3654499000404	189.5	189.493324599985	189.998644799984	191.993338899978
55	5	7	distractor	38	Right	Right	RightArrow	1	0.955229300016072	193	192.993473200011	193.496235999977	195.493507799983
56	5	8	distractor	81	Right	Right	RightArrow	1	1.16395620000549	196.5	196.492963000026	196.997950599995	198.993401099986
57	5	9	target	37	Left	Right	RightArrow	0	1.5725003000116	200	199.993051900005	200.496770699974	202.493395400001
58	5	10	distractor	59	Right	Right	RightArrow	1	1.48466099996585	203.5	203.493319600006	203.998854400008	205.993446399982
59	5	11	target	39	Left	Left	LeftArrow	1	2.33595360000618	207	206.993404000008	207.497069199977	209.499485399981
60	5	12	distractor	79	Right	Right	RightArrow	1	1.18835620000027	210.5	210.493376100028	210.999060800008	212.993437200028
61	6	1	filler	42	None	Right	RightArrow	NaN	1.33665249997284	214	213.993445599976	214.496814300015	216.493416499987
62	6	2	filler	83	None	Right	RightArrow	NaN	2.19346200005384	217.5	217.493447599991	217.997206499975	219.994758800021
63	6	3	target	40	Left	Right	RightArrow	0	2.1167619000189	221	220.993395700003	221.49817169999	223.499694300001
64	6	4	target	84	Left	Left	LeftArrow	1	2.23555469996063	224.5	224.493432799994	224.996730200015	226.996712199994
65	6	5	distractor	61	Right			-1	0	228	227.993617500004	228.500068599998	230.494301699975
66	6	6	target	82	Left	Right	RightArrow	0	1.69750800001202	231.5	231.506589900004	232.000585599977	233.993475500029
67	6	7	distractor	19	Right	Right	RightArrow	1	0.671026700001676	235	234.993139799975	235.498183600022	237.493388800009
68	6	8	distractor	41	Right	Right	RightArrow	1	1.38576179998927	238.5	238.493341399997	239.001196100027	240.993389700016
69	6	9	distractor	63	Right	Left	LeftArrow	0	0.991383499989752	242	241.993338499975	242.500295899983	244.493472100003
70	6	10	distractor	21	Right	Right	RightArrow	1	1.44594720000168	245.5	245.49317999999	245.999730399984	247.993351000012
71	6	11	target	62	Left	Right	RightArrow	0	1.47377839998808	249	248.993373900012	249.500237400003	251.49302330002
72	6	12	target	20	Left	Right	RightArrow	0	1.56899559998419	252.5	252.493370199983	252.992784400005	254.993441400002
