trial_id	block	trial	type	stim_id	cresp	resp	resp_raw	acc	rt	trial_start_time_expt	trial_start_time	stim_onset_time	stim_offset_time
1	1	1	filler	48	None			NaN	0	4	3.99339640000835	4.50201099994592	6.49864750006236
2	1	2	filler	68	None			NaN	0	7.5	7.50944729987532	7.9985311999917	9.99481499986723
3	1	3	target	46	Left	Right	RightArrow	0	1.1549525000155	11	11.0063529000618	11.5023542998824	13.4936422000173
4	1	4	distractor	47	Right	Left	LeftArrow	0	1.29943439993076	14.5	14.493519499898	15.0027391000185	16.9934247999918
5	1	5	distractor	26	Right	Right	RightArrow	1	0.774560099933296	18	17.9934244998731	18.497796599986	20.4930249999743
6	1	6	distractor	27	Right	Right	RightArrow	1	1.18107219994999	21.5	21.4930974000599	21.9988293000497	23.9934964000713
7	1	7	distractor	5	Right	Left	LeftArrow	0	0.696967999916524	25	24.9933927999809	25.5017417999916	27.4933853000402
8	1	8	target	25	Left	Right	RightArrow	0	1.03258810006082	28.5	28.4934731000103	29.0034658999648	30.9934908000287
9	1	9	target	4	Left	Left	LeftArrow	1	0.798612199956551	32	31.9934115998913	32.5017665000632	34.4933714999352
10	1	10	distractor	69	Right	Right	RightArrow	1	0.639798999996856	35.5	35.4934819000773	35.9991460000165	37.9930505999364
11	1	11	target	6	Left	Left	LeftArrow	1	0.649868200067431	39	38.993485199986	39.5035480998922	41.4928915000055
12	1	12	target	67	Left	Right	RightArrow	0	0.521399299846962	42.5	42.4932027000468	43.002348100068	44.9933984999079
13	2	1	filler	9	None			NaN	0	46	45.9931256999262	46.5016983998939	48.4979278000537
14	2	2	filler	30	None			NaN	0	49.5	49.5038008000702	49.998619900085	51.9951746999286
15	2	3	target	7	Left	Left	LeftArrow	1	0.750694300048053	53	53.0068745000754	53.504437699914	55.493450500071
16	2	4	target	28	Left	Right	RightArrow	0	0.724489000160247	56.5	56.4933692999184	57.0012053998653	58.9933940998744
17	2	5	distractor	71	Right	Right	RightArrow	1	0.859347300138324	60	59.9934326999355	60.5002826999407	62.4934863999952
18	2	6	target	29	Left	Left	LeftArrow	1	0.49321290012449	63.5	63.4932518999558	63.999374799896	65.9933889000677
19	2	7	distractor	8	Right	Left	LeftArrow	0	0.944515000097454	67	66.9934962999541	67.498206099961	69.4933913999703
20	2	8	distractor	72	Right	Right	RightArrow	1	1.22689790022559	70.5	70.4934795999434	70.9996765998658	72.9934986000881
21	2	9	distractor	50	Right	Left	LeftArrow	0	0.966470600105822	74	73.9934757999144	74.5008692999836	76.4930855999701
22	2	10	target	70	Left	Right	RightArrow	0	0.741855700034648	77.5	77.4934308999218	78.0018356000073	79.9935554000549
23	2	11	target	49	Left	Left	LeftArrow	1	0.561626999871805	81	80.9934888000134	81.5002772000153	83.4934028999414
24	2	12	distractor	51	Right	Left	LeftArrow	0	0.826437199953943	84.5	84.4930447998922	85.0003148000687	86.9930213999469
25	3	1	filler	31	None			NaN	0	88	87.9934483999386	88.5033321999945	90.4956048999447
26	3	2	filler	10	None			NaN	0	91.5	91.5087908999994	92.0029436999466	93.9980405999813
27	3	3	distractor	53	Right	Right	RightArrow	1	1.00068299984559	95	95.0035558000673	95.5030608000234	97.4933919000905
28	3	4	target	12	Left	Right	RightArrow	0	1.25964260008186	98.5	98.4930716999806	99.0040181998629	100.993495600065
29	3	5	distractor	74	Right	Right	RightArrow	1	0.972144200000912	102	101.993003800046	102.500282299938	104.493471299997
30	3	6	target	11	Left	Left	LeftArrow	1	0.830148600041866	105.5	105.493091600016	105.998853500001	107.993493699934
31	3	7	target	75	Left	Right	RightArrow	0	0.936855900101364	109	108.993142500054	109.499109599972	111.49347259989
32	3	8	distractor	54	Right	Right	RightArrow	1	0.984122700057924	112.5	112.493511700071	113.000314899953	114.993077300023
33	3	9	distractor	32	Right	Left	LeftArrow	0	0.992031499976292	116	115.993436600082	116.501256000018	118.493307000026
34	3	10	target	52	Left	Right	RightArrow	0	0.891953499987721	119.5	119.493199100019	120.001861100085	121.993421500083
35	3	11	target	33	Left	Left	LeftArrow	1	0.837633899878711	123	122.993430800037	123.501717000036	125.493430899922
36	3	12	distractor	73	Right	Left	LeftArrow	0	1.21295340009965	126.5	126.493492400041	127.002429699991	128.99346909998
37	4	1	filler	13	None			NaN	0	130	129.993510799948	130.50399170001	132.499017700087
38	4	2	filler	14	None			NaN	0	133.5	133.507814500015	134.0029527999	135.994524299866
39	4	3	target	15	Left	Left	LeftArrow	1	0.839392799884081	137	137.00555110001	137.503926000092	139.493481199956
40	4	4	distractor	56	Right	Right	RightArrow	1	1.23281199997291	140.5	140.493509799941	140.999784199987	142.993484299863
41	4	5	distractor	76	Right	Right	RightArrow	1	0.946994399884716	144	143.993471900001	144.498293000041	146.493395800004
42	4	6	target	55	Left	Left	LeftArrow	1	0.966354800155386	147.5	147.493452100083	148.001836899901	149.993388399947
43	4	7	target	78	Left	Right	RightArrow	0	0.683277700096369	151	150.993696799967	151.502143499907	153.493377199862
44	4	8	distractor	36	Right	Left	LeftArrow	0	1.17007779981941	154.5	154.493472500006	155.004959200043	156.993638799991
45	4	9	target	77	Left	Right	RightArrow	0	0.813004299998283	158	157.993369699921	158.502718999982	160.493056299863
46	4	10	target	35	Left	Right	RightArrow	0	0.964434699853882	161.5	161.493196700001	162.001592400018	163.993428800022
47	4	11	distractor	34	Right	Left	LeftArrow	0	0.784385800128803	165	164.993485499872	165.500323399901	167.493254299974
48	4	12	distractor	57	Right	Right	RightArrow	1	0.736626499798149	168.5	168.493387500057	169.001723600086	170.993385500042
49	5	1	filler	58	None			NaN	0	172	171.993396299891	172.499920600094	174.497372299898
50	5	2	filler	81	None			NaN	0	175.5	175.508805899881	176.000069200061	177.999651100021
51	5	3	target	60	Left	Left	LeftArrow	1	0.958730800077319	179	179.006431899965	179.503182200016	181.493370299926
52	5	4	target	80	Left	Right	RightArrow	0	0.776570900110528	182.5	182.493397000013	183.002349799965	184.993391799973
53	5	5	distractor	18	Right	Left	LeftArrow	0	0.57682630000636	186	185.993084300077	186.49905079999	188.493421199964
54	5	6	distractor	16	Right	Right	RightArrow	1	0.967045499943197	189.5	189.493426299887	189.999335600063	191.993904100033
55	5	7	distractor	39	Right	Right	RightArrow	1	0.719495000084862	193	192.993319599889	193.504413499963	195.493426200002
56	5	8	target	17	Left	Right	RightArrow	0	0.956353100016713	196.5	196.493359799962	197.004290800076	198.993489899905
57	5	9	target	38	Left	Left	LeftArrow	1	0.671185199869797	200	199.993443999905	200.501538800076	202.49420950003
58	5	10	distractor	59	Right	Left	LeftArrow	0	0.964319000020623	203.5	203.49348090007	204.004116100026	205.993188600056
59	5	11	target	37	Left	Right	RightArrow	0	0.618959000101313	207	206.993524600053	207.503495299956	209.493377199862
60	5	12	distractor	79	Right	Left	LeftArrow	0	1.00791319995187	210.5	210.493399299914	211.000631500036	212.993483799975
61	6	1	filler	21	None			NaN	0	214	213.993518600008	214.500213799998	216.500320299994
62	6	2	filler	40	None			NaN	0	217.5	217.507661100011	218.003006000072	220.000174399931
63	6	3	target	20	Left	Left	LeftArrow	1	1.07596629997715	221	221.006281699985	221.503633199958	223.493515699869
64	6	4	distractor	62	Right	Left	LeftArrow	0	0.73314749985002	224.5	224.493510500062	224.999392600032	226.99343069992
65	6	5	distractor	82	Right	Right	RightArrow	1	0.645115099847317	228	227.993682600092	228.498001900036	230.493326100055
66	6	6	target	61	Left	Right	RightArrow	0	0.853157800156623	231.5	231.493306400022	232.002127199899	233.993464899948
67	6	7	target	83	Left	Left	LeftArrow	1	0.920531300129369	235	234.993359300075	235.498462999938	237.493494699942
68	6	8	target	63	Left	Right	RightArrow	0	0.809725400060415	238.5	238.492975400062	239.00002139993	240.993285499979
69	6	9	target	84	Left	Left	LeftArrow	1	0.726400400046259	242	241.993507599924	242.502397899982	244.493386599934
70	6	10	distractor	41	Right	Right	RightArrow	1	0.687724199844524	245.5	245.493405899964	246.003327100072	247.993464000057
71	6	11	distractor	42	Right	Left	LeftArrow	0	0.667519600130618	249	248.993506900035	249.498976599891	251.493467800086
72	6	12	distractor	19	Right	Right	RightArrow	1	0.547661700053141	252.5	252.493498200085	252.998672900023	254.993467899971
