trial_id	block	trial	type	stim_id	cresp	resp	resp_raw	acc	rt	trial_start_time_expt	trial_start_time	stim_onset_time	stim_offset_time
1	1	1	filler	48	None			NaN	0	4	3.99337500007823	4.54130470007658	6.49453580006957
2	1	2	filler	68	None			NaN	0	7.5	7.50998960004654	8.0397409000434	9.99590120010544
3	1	3	target	46	Left	Left	LeftArrow	1	1.35078829992563	11	11.0052633000305	11.5385832000757	13.4934491000604
4	1	4	distractor	47	Right	Right	RightArrow	1	1.72857809998095	14.5	14.4934431000147	15.0368479000172	16.9934432000155
5	1	5	distractor	26	Right	Right	RightArrow	1	2.51345179998316	18	17.9933873000555	18.5346196000464	20.4989044000395
6	1	6	distractor	27	Right	Right	RightArrow	1	2.31915140000638	21.5	21.4934154000366	22.0366660000291	23.9942635000916
7	1	7	distractor	5	Right	Left	LeftArrow	0	1.941140800016	25	24.9934285000199	25.53864230006	27.4933033999987
8	1	8	target	25	Left	Left	LeftArrow	1	1.88726049999241	28.5	28.4934685000917	29.0381350000389	30.9933664000127
9	1	9	target	4	Left	Right	RightArrow	0	1.54743769997731	32	31.993268600083	32.5047587000299	34.4930651000468
10	1	10	distractor	69	Right	Right	RightArrow	1	1.56339050002862	35.5	35.4934620000422	36.0348372000735	37.9934380000923
11	1	11	target	6	Left	Left	LeftArrow	1	2.82322999997996	39	38.9934543001	39.5379380000522	41.4968750000698
12	1	12	target	67	Left	Right	RightArrow	0	2.13237670005765	42.5	42.4933572000591	43.0396132000023	44.9997564000078
13	2	1	filler	9	None			NaN	0	46	45.9931061000098	46.5023427000269	48.4940610000631
14	2	2	filler	30	None			NaN	0	49.5	49.5041953000473	50.0364018999971	51.9989219000563
15	2	3	target	7	Left	Left	LeftArrow	1	2.26411550003104	53	53.008266900084	53.5369576000376	55.4982789000496
16	2	4	target	28	Left	Left	LeftArrow	1	2.25989079999272	56.5	56.4931890000589	57.0051306000678	58.9941780000227
17	2	5	distractor	71	Right	Right	RightArrow	1	1.77255659992807	60	59.9934410999995	60.5384288000641	62.4934437000193
18	2	6	target	29	Left	Left	LeftArrow	1	1.76117549999617	63.5	63.4934631000506	64.0394140999997	65.993452600087
19	2	7	distractor	8	Right	Right	RightArrow	1	0.805132000008598	67	66.9933615000919	67.5001111000311	69.4930323000299
20	2	8	distractor	72	Right	Left	LeftArrow	0	1.10017710004468	70.5	70.4934960000683	71.0037679000525	72.9934068000875
21	2	9	distractor	50	Right	Right	RightArrow	1	1.56575449998491	74	73.9934218000853	74.5387755000265	76.4932440000121
22	2	10	target	70	Left	Right	RightArrow	0	1.38655920000747	77.5	77.4933816000121	78.0363798000617	79.9934051000746
23	2	11	target	49	Left	Right	RightArrow	0	1.54888879996724	81	80.9933820000151	81.5383473000256	83.4934477000497
24	2	12	distractor	51	Right	Right	RightArrow	1	0.929649599944241	84.5	84.4934567000018	84.9995981000829	86.9934637000551
25	3	1	filler	31	None			NaN	0	88	87.9934383000946	88.5371554000303	90.4975948000792
26	3	2	filler	10	None			NaN	0	91.5	91.5029639001004	92.0405332000228	93.9941548000788
27	3	3	distractor	53	Right	Right	RightArrow	1	1.1442454000935	95	95.0036476000678	95.4998458999908	97.4934383000946
28	3	4	target	12	Left	Left	LeftArrow	1	1.12222930009011	98.5	98.4933393000392	99.0379000999965	100.993311100057
29	3	5	distractor	74	Right	Right	RightArrow	1	1.26693339995109	102	101.993434200063	102.536719500087	104.493130900082
30	3	6	target	11	Left	Right	RightArrow	0	1.51731649995781	105.5	105.493318599998	106.036452900036	107.993379599997
31	3	7	target	75	Left			-1	0	109	108.993368100026	109.533872100059	111.499094600091
32	3	8	distractor	54	Right	Right	RightArrow	1	1.53715910005849	112.5	112.509103500051	113.036554299993	114.993456199998
33	3	9	distractor	32	Right	Left	LeftArrow	0	0.882842099992558	116	115.993297800072	116.535069300095	118.493502600002
34	3	10	target	52	Left	Right	RightArrow	0	1.75189850002062	119.5	119.493407800095	120.036592100048	121.993438900099
35	3	11	target	33	Left	Left	LeftArrow	1	0.970521599985659	123	122.993348599994	123.537106500007	125.493907600059
36	3	12	distractor	73	Right	Right	RightArrow	1	1.58470859995577	126.5	126.493367600022	127.033778400044	128.993397000013
37	4	1	filler	13	None			NaN	0	130	129.993326000054	130.536131700035	132.497017899994
38	4	2	filler	14	None			NaN	0	133.5	133.507911600056	134.00001790002	135.994228300056
39	4	3	target	15	Left	Left	LeftArrow	1	1.70855450001545	137	137.007394700078	137.537931400002	139.493444200023
40	4	4	distractor	56	Right	Right	RightArrow	1	1.54932460002601	140.5	140.493443000014	140.999632699997	142.993451500079
41	4	5	distractor	76	Right			-1	0	144	143.993470300105	144.539045999991	146.494913600036
42	4	6	target	55	Left	Left	LeftArrow	1	1.52402559993789	147.5	147.502640800085	148.001844700077	149.993432700052
43	4	7	target	78	Left	Left	LeftArrow	1	2.32224679994397	151	150.993380600004	151.538292500074	153.493929000106
44	4	8	distractor	36	Right	Right	RightArrow	1	1.40715119999368	154.5	154.493467900087	155.036475100089	156.993120400002
45	4	9	target	77	Left	Right	RightArrow	0	1.81089800002519	158	157.99349760008	158.536408300046	160.494196500047
46	4	10	target	35	Left	Left	LeftArrow	1	0.924906900036149	161.5	161.493651600089	162.034680200042	163.99337130005
47	4	11	distractor	34	Right	Left	LeftArrow	0	1.86893830006011	165	164.993432900053	165.501115699997	167.49338270002
48	4	12	distractor	57	Right	Right	RightArrow	1	1.21294949995354	168.5	168.493389300071	168.999855300062	170.993436600082
49	5	1	filler	58	None			NaN	0	172	171.993432300049	172.535090300022	174.493774900096
50	5	2	filler	81	None			NaN	0	175.5	175.508833100088	176.002287500072	177.997505600099
51	5	3	target	60	Left	Right	RightArrow	0	1.22040480002761	179	179.00928420003	179.537431500037	181.493461500038
52	5	4	target	80	Left	Left	LeftArrow	1	2.46130350010935	182.5	182.493414900033	183.03760879999	184.999204299995
53	5	5	distractor	18	Right	Right	RightArrow	1	1.60672240005806	186	185.993299700087	186.53640099999	188.493464600062
54	5	6	distractor	16	Right	Right	RightArrow	1	1.63741560000926	189.5	189.493373500067	190.038291100063	191.993436900084
55	5	7	distractor	39	Right	Left	LeftArrow	0	2.23038600001018	193	192.993513600086	193.53475770005	195.496164700016
56	5	8	target	17	Left	Left	LeftArrow	1	1.58614330005366	196.5	196.493854	197.04236610001	198.993412600015
57	5	9	target	38	Left	Right	RightArrow	0	1.32980740000494	200	199.993412200012	200.536203800002	202.493038300076
58	5	10	distractor	59	Right	Right	RightArrow	1	2.21867879992351	203.5	203.493420200073	204.037805600092	205.999334200053
59	5	11	target	37	Left	Left	LeftArrow	1	1.13454699993599	207	206.993379399995	207.53550940007	209.493031900027
60	5	12	distractor	79	Right	Right	RightArrow	1	1.63586989999749	210.5	210.493440499995	211.037622800097	212.993509300053
61	6	1	filler	21	None			NaN	0	214	213.993345200084	214.53646870004	216.495443399996
62	6	2	filler	40	None			NaN	0	217.5	217.504929000046	218.038283000002	219.997251400026
63	6	3	target	20	Left	Left	LeftArrow	1	1.84165469999425	221	221.008555300068	221.539187700022	223.49335990008
64	6	4	distractor	62	Right			-1	0	224.5	224.493443200015	225.034046899993	226.99786750006
65	6	5	distractor	82	Right	Right	RightArrow	1	1.36496829998214	228	228.004000300076	228.501291100052	230.493406100082
66	6	6	target	61	Left	Left	LeftArrow	1	1.41803300008178	231.5	231.494096500101	232.001926800003	233.993136000005
67	6	7	target	83	Left	Left	LeftArrow	1	2.84089909994509	235	234.993434900069	235.538217500085	237.497343300027
68	6	8	target	63	Left	Right	RightArrow	0	1.82866489992011	238.5	238.493312100065	238.999047200079	240.993209500099
69	6	9	target	84	Left			-1	0	242	241.993529200088	242.50292800006	244.498922200059
70	6	10	distractor	41	Right	Right	RightArrow	1	2.50220729992725	245.5	245.505973300082	246.037588000065	247.998882899992
71	6	11	distractor	42	Right	Left	LeftArrow	0	1.65647620009258	249	248.993420800078	249.50461589999	251.49335200002
72	6	12	distractor	19	Right	Right	RightArrow	1	1.75076620001346	252.5	252.49346430006	253.035137600033	254.993295700056
