trial_id	block	trial	type	stim_id	cresp	resp	resp_raw	acc	rt	trial_start_time_expt	trial_start_time	stim_onset_time	stim_offset_time
1	1	1	filler	5	None			NaN	0	4	3.99345179996453	4.5236727000447	6.49956649995875
2	1	2	filler	25	None			NaN	0	7.5	7.5085196000291	8.00459639995825	9.99391459999606
3	1	3	target	4	Left	Left	LeftArrow	1	0.930374399991706	11	11.0060117000248	11.5003677000059	13.4934953000629
4	1	4	target	27	Left	Left	LeftArrow	1	1.49976849998347	14.5	14.4934666999616	14.9995884000091	16.9934039000655
5	1	5	target	6	Left	Right	RightArrow	0	1.61246560001746	18	17.9934652000666	18.5021232999861	20.4934581000125
6	1	6	distractor	48	Right	Right	RightArrow	1	1.38421030004974	21.5	21.4935310999863	22.0002153000096	23.99351629999
7	1	7	distractor	46	Right	Right	RightArrow	1	1.44704240001738	25	24.9933882000623	25.5018837000243	27.4934831999708
8	1	8	target	47	Left	Left	LeftArrow	1	1.33663979999255	28.5	28.4934153000358	28.9979876000434	30.993445500033
9	1	9	distractor	26	Right	Right	RightArrow	1	0.872181599959731	32	31.9941449000034	32.5005672000116	34.4934349000687
10	1	10	distractor	67	Right	Right	RightArrow	1	1.11669129994698	35.5	35.4934451000299	35.9990455000661	37.9933858000441
11	1	11	distractor	68	Right	Right	RightArrow	1	1.26523450005334	39	38.9934487000573	39.5009954000125	41.4934512999607
12	1	12	target	69	Left	Left	LeftArrow	1	0.728440999984741	42.5	42.4934719000012	43.0013371000532	44.9934245999902
13	2	1	filler	30	None			NaN	0	46	45.9933819000144	46.5024721999653	48.4982031000545
14	2	2	filler	49	None			NaN	0	49.5	49.5061960000312	49.9971559999976	51.9976737999823
15	2	3	distractor	71	Right			-1	0	53	53.0105589999584	53.4973686999874	55.4954153000144
16	2	4	distractor	8	Right	Right	RightArrow	1	1.3859819000354	56.5	56.5048064000439	56.9996744999662	58.9934990999755
17	2	5	target	72	Left	Right	RightArrow	0	1.61338939995039	60	59.9934683999745	60.4980141000124	62.493520500022
18	2	6	target	7	Left	Left	LeftArrow	1	1.43643879995216	63.5	63.4934211999644	64.0010617000517	65.993547799997
19	2	7	distractor	50	Right	Left	LeftArrow	0	1.4088823000202	67	66.993489400018	67.4982129000127	69.4933816000121
20	2	8	target	9	Left	Right	RightArrow	0	1.31328050000593	70.5	70.4934307000367	70.9980723999906	72.9934201000724
21	2	9	target	51	Left	Left	LeftArrow	1	1.16895239998121	74	73.9934344000649	74.501948100049	76.4934555999935
22	2	10	distractor	29	Right	Right	RightArrow	1	1.55747440003324	77.5	77.4934406999964	77.997384199989	79.9934697999852
23	2	11	distractor	70	Right	Right	RightArrow	1	1.17604849999771	81	80.9934575000079	81.4994862000458	83.4933862000471
24	2	12	target	28	Left	Left	LeftArrow	1	1.34448190010153	84.5	84.4934096999932	85.00007249997	86.993445500033
25	3	1	filler	33	None			NaN	0	88	87.9934588000178	88.4989291999955	90.496356699965
26	3	2	filler	54	None			NaN	0	91.5	91.5089569999836	91.9971773000434	93.9987851000624
27	3	3	distractor	75	Right	Right	RightArrow	1	1.10556169995107	95	95.005373800057	95.4965215000557	97.4934893000172
28	3	4	distractor	10	Right	Right	RightArrow	1	1.29124859999865	98.5	98.4935260000639	98.9986050999723	100.993477700045
29	3	5	target	73	Left	Left	LeftArrow	1	1.81493049999699	102	101.99340789998	102.498709900072	104.493458900019
30	3	6	target	12	Left	Left	LeftArrow	1	1.82228309998754	105.5	105.493331199978	105.996880599996	107.993474200019
31	3	7	target	74	Left	Left	LeftArrow	1	1.6240342000965	109	108.993509400054	109.498697199975	111.493509400054
32	3	8	distractor	53	Right	Right	RightArrow	1	1.50101560004987	112.5	112.493484099978	112.998132899986	114.993387100054
33	3	9	distractor	32	Right	Right	RightArrow	1	1.30749230005313	116	115.993465500069	116.496098999982	118.493485599989
34	3	10	target	52	Left	Left	LeftArrow	1	1.605475999997	119.5	119.493472500006	119.996675400063	121.993467199965
35	3	11	target	31	Left	Right	RightArrow	0	1.64876120002009	123	122.993416900048	123.501594800036	125.493388100062
36	3	12	distractor	11	Right	Right	RightArrow	1	2.03901279997081	126.5	126.493520400021	126.997116000042	128.996263999958
37	4	1	filler	56	None			NaN	0	130	129.993468999979	130.496055600001	132.494938599993
38	4	2	filler	55	None			NaN	0	133.5	133.506244200049	134.000199800008	135.999268900021
39	4	3	distractor	13	Right	Right	RightArrow	1	0.882987000048161	137	137.004044400062	137.502602000022	139.493774399976
40	4	4	distractor	14	Right	Right	RightArrow	1	1.51777900010347	140.5	140.493282300071	140.994522099965	142.993501899997
41	4	5	distractor	78	Right	Right	RightArrow	1	1.35751720005646	144	143.993424099986	144.501880199998	146.493460600032
42	4	6	target	15	Left	Left	LeftArrow	1	1.21970430004876	147.5	147.493377099978	148.001128499978	149.993509800057
43	4	7	target	76	Left	Left	LeftArrow	1	1.04991639999207	151	150.993454499985	151.499634700012	153.493471499998
44	4	8	distractor	36	Right	Right	RightArrow	1	1.76065559999552	154.5	154.493484499981	154.998899099999	156.993476800038
45	4	9	target	77	Left	Left	LeftArrow	1	1.85474720003549	158	157.993468799978	158.499102400034	160.493310900056
46	4	10	target	35	Left	Left	LeftArrow	1	1.66844340006355	161.5	161.49348100007	161.997231699992	163.993337000022
47	4	11	distractor	57	Right	Right	RightArrow	1	1.41471329994965	165	164.993472300004	165.500144300051	167.493448800058
48	4	12	target	34	Left	Left	LeftArrow	1	1.17876070004422	168.5	168.493416500045	169.000707000028	170.993531699991
49	5	1	filler	58	None			NaN	0	172	171.993415400037	172.499057600042	174.498975299997
50	5	2	filler	18	None			NaN	0	175.5	175.504460499971	175.997229599976	177.998431600048
51	5	3	target	60	Left	Left	LeftArrow	1	1.02361750009004	179	179.004578800057	179.499934199965	181.493480700068
52	5	4	target	16	Left	Left	LeftArrow	1	1.46581750002224	182.5	182.493510600063	182.998774599982	184.993479200057
53	5	5	distractor	80	Right	Right	RightArrow	1	1.06424029998016	186	185.993425799999	186.49657800002	188.493418800062
54	5	6	target	17	Left	Right	RightArrow	0	1.13017699995544	189.5	189.493387700059	189.99958850001	191.993507300038
55	5	7	distractor	38	Right	Right	RightArrow	1	1.23209940001834	193	192.993470199988	193.497431700001	195.493510100059
56	5	8	distractor	81	Right	Right	RightArrow	1	1.06325320003089	196.5	196.492959100055	197.000919000013	198.993377499981
57	5	9	target	37	Left	Left	LeftArrow	1	1.35262430005241	200	199.993492100039	200.500915199984	202.493467299966
58	5	10	distractor	59	Right	Right	RightArrow	1	1.48485370003618	203.5	203.49341580004	203.997373800026	205.993473600014
59	5	11	target	39	Left	Left	LeftArrow	1	1.84103330003563	207	206.993524100049	207.499003899982	209.493460500031
60	5	12	distractor	79	Right			-1	0	210.5	210.493712099968	210.99748530006	212.994274000055
61	6	1	filler	42	None			NaN	0	214	214.003505900037	214.500592599972	216.49380679999
62	6	2	filler	83	None			NaN	0	217.5	217.50940780004	218.001635599998	219.996517600026
63	6	3	target	40	Left	Left	LeftArrow	1	0.577911700005643	221	221.009904599981	221.497540100012	223.493394199992
64	6	4	target	84	Left	Left	LeftArrow	1	1.02193050005008	224.5	224.493441700004	225.001790600014	226.993530099979
65	6	5	distractor	61	Right			-1	0	228	227.993408199982	228.497535499977	230.494430599967
66	6	6	target	82	Left	Right	RightArrow	0	1.96392430004198	231.5	231.508965300047	231.998442000011	233.993454299984
67	6	7	distractor	19	Right	Right	RightArrow	1	0.969254199997522	235	234.993529899977	235.496641300037	237.493424999993
68	6	8	distractor	41	Right	Right	RightArrow	1	1.35121380002238	238.5	238.493395900005	238.998067899956	240.993396800011
69	6	9	distractor	63	Right	Right	RightArrow	1	1.4663189999992	242	241.993427600013	242.500578799983	244.493114100071
70	6	10	distractor	21	Right	Right	RightArrow	1	1.78723180002999	245.5	245.493952500052	245.998805899988	247.993409599992
71	6	11	target	62	Left	Left	LeftArrow	1	1.98406569997314	249	248.993440099992	249.49921290006	251.493427900015
72	6	12	target	20	Left	Right	RightArrow	0	1.24712740001269	252.5	252.493344299961	252.996195300017	254.993247500039
