trial_id	block	trial	type	stim_id	cresp	resp	resp_raw	acc	rt	trial_start_time_expt	trial_start_time	stim_onset_time	stim_offset_time
1	1	1	filler	48	None			NaN	0	4	3.99347680015489	4.50094639998861	6.49444560008124
2	1	2	filler	68	None			NaN	0	7.5	7.51023900019936	8.00235250010155	9.99703510012478
3	1	3	target	46	Left	Left	LeftArrow	1	1.28300409996882	11	11.0093799000606	11.5002609000076	13.4935139000881
4	1	4	distractor	47	Right	Left	LeftArrow	0	1.02600580011494	14.5	14.4935420001857	15.0041708999779	16.9934351001866
5	1	5	distractor	26	Right	Right	RightArrow	1	1.31818370008841	18	17.9934231999796	18.5038819001056	20.4934203000739
6	1	6	distractor	27	Right	Right	RightArrow	1	1.41023649997078	21.5	21.4934060000814	22.0009997000452	23.99344820017
7	1	7	distractor	5	Right	Right	RightArrow	1	1.54683519992977	25	24.9934287001379	25.4982975001913	27.4933074000292
8	1	8	target	25	Left	Right	RightArrow	0	1.5095308998134	28.5	28.4934292000253	29.0013845001813	30.9930873000994
9	1	9	target	4	Left	Right	RightArrow	0	0.980122999986634	32	31.9931481000967	32.5019748001359	34.4934555999935
10	1	10	distractor	69	Right	Left	LeftArrow	0	1.25189499999397	35.5	35.4934042000677	36.0047400000039	37.9934729000088
11	1	11	target	6	Left	Right	RightArrow	0	1.44233950017951	39	38.9933965001255	39.5002588999923	41.4934667001944
12	1	12	target	67	Left	Left	LeftArrow	1	0.976429800037295	42.5	42.493479500059	43.0026498001534	44.9930470001418
13	2	1	filler	9	None			NaN	0	46	45.9934789000545	46.5038314000703	48.4974223000463
14	2	2	filler	30	None			NaN	0	49.5	49.5065628001466	49.9990141000599	51.9959003000986
15	2	3	target	7	Left	Left	LeftArrow	1	0.987906499998644	53	53.0085768999998	53.5021670002025	55.4934158001561
16	2	4	target	28	Left	Right	RightArrow	0	1.05739720002748	56.5	56.4934349001851	57.0020705000497	58.9934104999993
17	2	5	distractor	71	Right	Right	RightArrow	1	0.884496199898422	60	59.9930046000518	60.5010457001626	62.4933264001738
18	2	6	target	29	Left	Left	LeftArrow	1	1.05905409995466	63.5	63.4932979000732	64.001719500171	65.9932506000623
19	2	7	distractor	8	Right	Left	LeftArrow	0	1.59265939984471	67	66.9932140000165	67.4989399001934	69.4934541999828
20	2	8	distractor	72	Right	Right	RightArrow	1	0.572003899840638	70.5	70.4933874001727	70.9979104001541	72.9934652000666
21	2	9	distractor	50	Right	Right	RightArrow	1	1.26138400007039	74	73.993387500057	74.4993545000907	76.4934663001914
22	2	10	target	70	Left	Left	LeftArrow	1	1.2659682999365	77.5	77.4934873001184	78.0028167001437	79.9933878001757
23	2	11	target	49	Left	Right	RightArrow	0	1.90536809992045	81	80.9934748001397	81.5002368001733	83.4934426001273
24	2	12	distractor	51	Right	Right	RightArrow	1	1.12556699989364	84.5	84.4935376001522	85.0025180000812	86.9931999000255
25	3	1	filler	31	None			NaN	0	88	87.993826400023	88.4991343000438	90.4983358001336
26	3	2	filler	10	None			NaN	0	91.5	91.5044869000558	92.0030493000522	93.9941915001255
27	3	3	distractor	53	Right	Right	RightArrow	1	0.997338499873877	95	95.0083892000839	95.5035201001447	97.493463100167
28	3	4	target	12	Left	Left	LeftArrow	1	1.03215829981491	98.5	98.4934907001443	99.0036479001865	100.9931005002
29	3	5	distractor	74	Right	Right	RightArrow	1	1.14855549996719	102	101.993392700097	102.498521500034	104.493401300162
30	3	6	target	11	Left	Left	LeftArrow	1	1.07355450000614	105.5	105.493418000173	106.002233800013	107.993493800052
31	3	7	target	75	Left	Right	RightArrow	0	1.15421519987285	109	108.993396800011	109.498628500151	111.493486300111
32	3	8	distractor	54	Right	Left	LeftArrow	0	1.04861350008287	112.5	112.493490700144	113.0040188001	114.994186999975
33	3	9	distractor	32	Right	Left	LeftArrow	0	1.23481819988228	116	115.993489000015	116.502374800155	118.493647600058
34	3	10	target	52	Left	Right	RightArrow	0	1.37512229988351	119.5	119.493479300058	119.999250400113	121.993474100018
35	3	11	target	33	Left	Left	LeftArrow	1	0.971224300097674	123	122.993440699996	123.499845300103	125.49299519998
36	3	12	distractor	73	Right	Right	RightArrow	1	1.21972130006179	126.5	126.493441200117	127.002955700038	128.993007900193
37	4	1	filler	13	None			NaN	0	130	129.993481200188	130.503420500085	132.496037499979
38	4	2	filler	14	None			NaN	0	133.5	133.509138400201	133.998932000017	135.998039700091
39	4	3	target	15	Left	Left	LeftArrow	1	0.784122599987313	137	137.007165500196	137.499458100181	139.49338840018
40	4	4	distractor	56	Right	Right	RightArrow	1	1.24314420018345	140.5	140.493359300075	140.999782799976	142.993496400071
41	4	5	distractor	76	Right	Right	RightArrow	1	0.93683739984408	144	143.993397600017	144.499314800138	146.493166300002
42	4	6	target	55	Left	Right	RightArrow	0	0.746258999919519	147.5	147.493464000057	147.999266300118	149.993464600062
43	4	7	target	78	Left	Right	RightArrow	0	0.843791599851102	151	150.99346350017	151.501554400194	153.493420000188
44	4	8	distractor	36	Right	Right	RightArrow	1	1.31248750002123	154.5	154.493456700118	155.00476390007	156.993556800066
45	4	9	target	77	Left	Right	RightArrow	0	0.668727200012654	158	157.993497500196	158.503066000063	160.493353100028
46	4	10	target	35	Left	Right	RightArrow	0	1.10612210002728	161.5	161.493435700191	162.004017200088	163.993433700176
47	4	11	distractor	34	Right	Right	RightArrow	1	0.854889000067487	165	164.993319300003	165.502610200085	167.493464800064
48	4	12	distractor	57	Right	Right	RightArrow	1	0.769112299894914	168.5	168.493563800119	169.001343100099	170.993504800135
49	5	1	filler	58	None			NaN	0	172	171.993075900013	172.500790400198	174.495718399994
50	5	2	filler	81	None			NaN	0	175.5	175.505288100103	175.99922340014	177.997626899974
51	5	3	target	60	Left	Left	LeftArrow	1	0.776243700180203	179	179.010912999976	179.500871700002	181.4934696001
52	5	4	target	80	Left	Left	LeftArrow	1	1.12540349992923	182.5	182.493481500074	183.002340600127	184.993471800117
53	5	5	distractor	18	Right	Right	RightArrow	1	0.897828600136563	186	185.993387400173	186.503438699991	188.493474900024
54	5	6	distractor	16	Right	Right	RightArrow	1	0.776901100063697	189.5	189.493103800109	190.003692100057	191.993511700071
55	5	7	distractor	39	Right	Right	RightArrow	1	1.15037570009008	193	192.99342770013	193.499116200022	195.4936989001
56	5	8	target	17	Left	Right	RightArrow	0	1.35629609995522	196.5	196.493418000173	197.000401800033	198.993396500126
57	5	9	target	38	Left			-1	0	200	199.993329100078	200.499007100007	202.496296200203
58	5	10	distractor	59	Right	Right	RightArrow	1	0.650153199909255	203.5	203.508634400088	204.003660800168	205.993400100153
59	5	11	target	37	Left	Right	RightArrow	0	0.673884300049394	207	206.99335120013	207.50129080005	209.493043499999
60	5	12	distractor	79	Right	Right	RightArrow	1	0.541555600007996	210.5	210.493902400136	210.999127800111	212.993487
61	6	1	filler	21	None			NaN	0	214	213.9933931001	214.501602499979	216.49838770018
62	6	2	filler	40	None			NaN	0	217.5	217.505886400118	218.00127810007	219.997277900111
63	6	3	target	20	Left	Left	LeftArrow	1	0.934467099839821	221	221.000386500033	221.505032600136	223.493481300073
64	6	4	distractor	62	Right	Right	RightArrow	1	1.20249789999798	224.5	224.49337869999	225.002762600081	226.993568800157
65	6	5	distractor	82	Right	Right	RightArrow	1	2.02618280006573	228	227.993565800134	228.498600600054	230.498031100025
66	6	6	target	61	Left	Right	RightArrow	0	1.04922299995087	231.5	231.493503400125	232.002756100148	233.99340370018
67	6	7	target	83	Left	Right	RightArrow	0	0.798169899964705	235	234.993455700111	235.498923200183	237.493444300024
68	6	8	target	63	Left	Right	RightArrow	0	0.609805499901995	238.5	238.493259100011	239.003505600151	240.99337609997
69	6	9	target	84	Left	Right	RightArrow	0	0.638336600037292	242	241.993293700041	242.499744500034	244.49318520003
70	6	10	distractor	41	Right	Left	LeftArrow	0	1.25068379985169	245.5	245.493059200002	245.998722300166	247.993440200109
71	6	11	distractor	42	Right	Left	LeftArrow	0	0.971502800006419	249	248.993377699982	249.500435500173	251.493443900021
72	6	12	distractor	19	Right	Right	RightArrow	1	1.69516230002046	252.5	252.49338440015	253.002712500049	254.993541900069
