trial_id	block	trial	type	stim_id	cresp	resp	resp_raw	acc	rt	trial_start_time_expt	trial_start_time	stim_onset_time	stim_offset_time
1	1	1	filler	48	None			NaN	0	4	3.99394849990495	4.53775419993326	6.49604099988937
2	1	2	filler	68	None			NaN	0	7.5	7.51798879983835	8.03769949986599	9.99506049999036
3	1	3	target	46	Left	Left	LeftArrow	1	1.23157879989594	11	11.0085979998112	11.5404888999183	13.493481699843
4	1	4	distractor	47	Right	Right	RightArrow	1	1.17081739986315	14.5	14.4934241999872	15.0387130000163	16.9931355998851
5	1	5	distractor	26	Right	Right	RightArrow	1	1.08459520014003	18	17.9930380999576	18.5396979998332	20.4934836998582
6	1	6	distractor	27	Right	Left	LeftArrow	0	0.717962800059468	21.5	21.4934699998703	22.0353897998575	23.9934374999721
7	1	7	distractor	5	Right	Right	RightArrow	1	1.19325929996558	25	24.9934666999616	25.5400731998961	27.4933877999429
8	1	8	target	25	Left	Left	LeftArrow	1	0.879563999827951	28.5	28.4934503999539	29.0385580000002	30.9933851999231
9	1	9	target	4	Left	Right	RightArrow	0	0.62101519992575	32	31.9933835999109	32.5381302998867	34.494170299964
10	1	10	distractor	69	Right	Left	LeftArrow	0	1.51392149995081	35.5	35.4934348999523	36.0389091998804	37.9935234999284
11	1	11	target	6	Left	Right	RightArrow	0	1.01644859998487	39	38.9934068999719	39.5384873999283	41.4933434999548
12	1	12	target	67	Left	Left	LeftArrow	1	0.972347599919885	42.5	42.49345729989	43.0342578999698	44.9934270000085
13	2	1	filler	9	None			NaN	0	46	45.9934574998915	46.5064484998584	48.495418000035
14	2	2	filler	30	None			NaN	0	49.5	49.5058911000378	50.0408026999794	51.9966009999625
15	2	3	target	7	Left	Left	LeftArrow	1	1.49432910000905	53	53.0042361000087	53.5381101998501	55.4934800998308
16	2	4	target	28	Left	Right	RightArrow	0	0.774035300128162	56.5	56.493477899814	57.0076668998227	58.9934647998307
17	2	5	distractor	71	Right	Right	RightArrow	1	0.964144999859855	60	59.9934815999586	60.539308300009	62.4934652999509
18	2	6	target	29	Left	Left	LeftArrow	1	1.00873950007372	63.5	63.4930560998619	64.0410584998317	65.9934971998446
19	2	7	distractor	8	Right	Right	RightArrow	1	0.945032699964941	67	66.9934918000363	67.5334006999619	69.4933680999093
20	2	8	distractor	72	Right	Left	LeftArrow	0	1.1763717001304	70.5	70.4934308999218	70.999283199897	72.9935482998844
21	2	9	distractor	50	Right	Right	RightArrow	1	1.23977279989049	74	73.9933766999748	74.5357218999416	76.4934270998929
22	2	10	target	70	Left	Right	RightArrow	0	0.862852199934423	77.5	77.4934598000254	78.0021112998948	79.9934051998425
23	2	11	target	49	Left	Left	LeftArrow	1	1.05065310001373	81	80.9934368999675	81.5320913998876	83.4934246998746
24	2	12	distractor	51	Right	Left	LeftArrow	0	1.06947340001352	84.5	84.493404999841	84.999633600004	86.9933354000095
25	3	1	filler	31	None			NaN	0	88	87.993104299996	88.5367753999308	90.4971687998623
26	3	2	filler	10	None			NaN	0	91.5	91.5043452999089	91.9962940998375	93.9971131000202
27	3	3	distractor	53	Right	Right	RightArrow	1	1.03423430002294	95	95.0042683000211	95.5015447998885	97.4934788998216
28	3	4	target	12	Left	Left	LeftArrow	1	0.982603100128472	98.5	98.4930409998633	99.0353794998955	100.99351239996
29	3	5	distractor	74	Right	Right	RightArrow	1	0.998206000076607	102	101.993375799851	102.535602599848	104.493519499898
30	3	6	target	11	Left	Left	LeftArrow	1	1.15918860002421	105.5	105.493389499839	106.037736099912	107.993497199845
31	3	7	target	75	Left	Left	LeftArrow	1	1.00218839989975	109	108.993502900004	109.537630999926	111.493675000034
32	3	8	distractor	54	Right	Right	RightArrow	1	1.18425619998015	112.5	112.493416199926	113.037633999949	114.993426899891
33	3	9	distractor	32	Right	Left	LeftArrow	0	1.46772910002619	116	115.993457699893	116.536794399843	118.493428899907
34	3	10	target	52	Left	Left	LeftArrow	1	1.36085000005551	119.5	119.493410499999	120.038123299833	121.993424999993
35	3	11	target	33	Left	Right	RightArrow	0	0.550216499948874	123	122.993398499908	123.535601299955	125.493475599913
36	3	12	distractor	73	Right	Left	LeftArrow	0	1.3430719000753	126.5	126.493387199938	127.03530709981	128.993481899844
37	4	1	filler	13	None			NaN	0	130	129.993038499961	130.504083399894	132.49869789998
38	4	2	filler	14	None			NaN	0	133.5	133.506983599858	133.998747200007	135.995195099851
39	4	3	target	15	Left	Left	LeftArrow	1	0.645961300004274	137	137.006282699993	137.536436199909	139.493429099908
40	4	4	distractor	56	Right	Right	RightArrow	1	1.03715139999986	140.5	140.49338390003	140.998115799855	142.993010899983
41	4	5	distractor	76	Right	Right	RightArrow	1	1.16303799999878	144	143.993499399861	144.535173699958	146.493985699955
42	4	6	target	55	Left	Left	LeftArrow	1	0.784213300095871	147.5	147.493064399809	148.000148299849	149.993441799888
43	4	7	target	78	Left	Right	RightArrow	0	0.805836000014096	151	150.993409399875	151.537331999978	153.493424999993
44	4	8	distractor	36	Right	Right	RightArrow	1	1.19438320002519	154.5	154.493183699902	155.039622399956	156.993466599844
45	4	9	target	77	Left	Right	RightArrow	0	0.92935170000419	158	157.993390399963	158.535258699907	160.49338569981
46	4	10	target	35	Left	Left	LeftArrow	1	0.696835800074041	161.5	161.493461200036	162.039840099867	163.9934564
47	4	11	distractor	34	Right	Left	LeftArrow	0	0.710859599988908	165	164.993382799905	165.505360199837	167.493477599928
48	4	12	distractor	57	Right	Right	RightArrow	1	1.08997120009735	168.5	168.493379299995	169.003662899835	170.993510799948
49	5	1	filler	58	None			NaN	0	172	171.993481499841	172.54031750001	174.4974926
50	5	2	filler	81	None			NaN	0	175.5	175.507568300003	175.998581999913	177.998714799993
51	5	3	target	60	Left	Left	LeftArrow	1	0.494211500044912	179	179.007780299988	179.536196199944	181.493318199879
52	5	4	target	80	Left	Left	LeftArrow	1	1.15199590008706	182.5	182.493821099866	183.034213499865	184.993257499998
53	5	5	distractor	18	Right	Right	RightArrow	1	1.53322480013594	186	185.993024299853	186.537683199858	188.493421599967
54	5	6	distractor	16	Right	Left	LeftArrow	0	1.4225019000005	189.5	189.493441799888	190.039942799835	191.993459499907
55	5	7	distractor	39	Right	Right	RightArrow	1	0.882270599948242	193	192.993392199976	193.538363199914	195.493454199983
56	5	8	target	17	Left	Left	LeftArrow	1	1.07384049985558	196.5	196.493507199921	197.005615100032	198.993471599882
57	5	9	target	38	Left	Right	RightArrow	0	1.32320079999045	200	199.993483699858	200.538560400018	202.493498199852
58	5	10	distractor	59	Right	Left	LeftArrow	0	1.18029529997148	203.5	203.493483999977	204.037638599984	205.993494099937
59	5	11	target	37	Left	Right	RightArrow	0	1.31515410006978	207	206.993478099816	207.534804099938	209.493459200021
60	5	12	distractor	79	Right	Right	RightArrow	1	1.47244639997371	210.5	210.493419599952	211.03454789985	212.993495999835
61	6	1	filler	21	None			NaN	0	214	213.993541999953	214.502118899953	216.495379899861
62	6	2	filler	40	None			NaN	0	217.5	217.505660400027	218.03399489983	219.994363100035
63	6	3	target	20	Left	Left	LeftArrow	1	0.969901100033894	221	221.009725000011	221.53782229987	223.49344599992
64	6	4	distractor	62	Right	Right	RightArrow	1	0.74077340005897	224.5	224.493426200002	225.034728799947	226.993466399843
65	6	5	distractor	82	Right	Left	LeftArrow	0	0.974087599897757	228	227.99337039981	228.498549300013	230.493388999952
66	6	6	target	61	Left	Right	RightArrow	0	0.818783999886364	231.5	231.493065399816	232.002313999925	233.993032400031
67	6	7	target	83	Left	Right	RightArrow	0	0.647008100058883	235	234.993378399871	235.540311899967	237.493475500029
68	6	8	target	63	Left	Left	LeftArrow	1	0.503497999859974	238.5	238.493470899994	239.00069939997	240.993403099943
69	6	9	target	84	Left	Right	RightArrow	0	0.754646399989724	242	241.993479799945	242.500566700008	244.493451999966
70	6	10	distractor	41	Right	Right	RightArrow	1	1.12194189988077	245.5	245.493400400039	246.035438599996	247.993590699974
71	6	11	distractor	42	Right	Right	RightArrow	1	0.951120200101286	249	248.993283899967	249.538437699899	251.493045700016
72	6	12	distractor	19	Right	Left	LeftArrow	0	0.723176199942827	252.5	252.493353500031	253.038302399917	254.993395800004
