trial_id	block	trial	type	stim_id	cresp	resp	resp_raw	acc	rt	trial_start_time_expt	trial_start_time	stim_onset_time	stim_offset_time
1	1	1	filler	48	None			NaN	0	4	3.99354189983569	4.50630949996412	6.49427049979568
2	1	2	filler	68	None			NaN	0	7.5	7.5132702998817	8.00407919986174	9.99636349990033
3	1	3	target	46	Left	Right	RightArrow	0	1.37806629994884	11	11.008473899914	11.5018116999418	13.4930853999685
4	1	4	distractor	47	Right	Right	RightArrow	1	2.3345039000269	14.5	14.4934483999386	15.0021931999363	16.995274099987
5	1	5	distractor	26	Right	Right	RightArrow	1	1.70792970014736	18	17.9934874000028	18.5023897998035	20.4934608999174
6	1	6	distractor	27	Right	Right	RightArrow	1	1.56207240000367	21.5	21.4934478998184	22.0033831999172	23.9934514998458
7	1	7	distractor	5	Right	Right	RightArrow	1	0.811047799885273	25	24.9931311998516	25.5046508999076	27.4931689999066
8	1	8	target	25	Left	Left	LeftArrow	1	1.21596310008317	28.5	28.493394699879	29.0013015998993	30.9933852998074
9	1	9	target	4	Left	Right	RightArrow	0	1.2203930998221	32	31.9934784998186	32.4962999999989	34.4934600999113
10	1	10	distractor	69	Right	Left	LeftArrow	0	1.34099699999206	35.5	35.4934925998095	36.0001371998806	37.9932701999787
11	1	11	target	6	Left	Left	LeftArrow	1	1.28721289988607	39	38.993519499898	39.5014637999702	41.4934277997818
12	1	12	target	67	Left	Left	LeftArrow	1	1.709737499943	42.5	42.4938399998937	43.0022723998409	44.9934113998897
13	2	1	filler	9	None			NaN	0	46	45.9933564998209	46.5036713997833	48.494151599938
14	2	2	filler	30	None			NaN	0	49.5	49.5053522000089	50.0014019999653	51.9969520999584
15	2	3	target	7	Left	Left	LeftArrow	1	1.29730170010589	53	53.0083892999683	53.5041965998244	55.4934776998125
16	2	4	target	28	Left	Left	LeftArrow	1	1.56405339995399	56.5	56.4933550998103	57.0000733998604	58.9934876998886
17	2	5	distractor	71	Right	Right	RightArrow	1	0.973412999883294	60	59.993015299784	60.499364099931	62.4933681997936
18	2	6	target	29	Left	Left	LeftArrow	1	0.933861499885097	63.5	63.4933787998743	64.0010601999238	65.993404999841
19	2	7	distractor	8	Right	Right	RightArrow	1	1.39915840001777	67	66.9934005998075	67.5042319998611	69.493476399919
20	2	8	distractor	72	Right	Right	RightArrow	1	1.45311579992995	70.5	70.4934423000086	71.0007118999492	72.9935088998172
21	2	9	distractor	50	Right	Right	RightArrow	1	1.1785512000788	74	73.9933855999261	74.5020428998396	76.493446999928
22	2	10	target	70	Left	Left	LeftArrow	1	1.51338630006649	77.5	77.4937374999281	78.0027881998103	79.9934119998943
23	2	11	target	49	Left	Right	RightArrow	0	1.23200530000031	81	80.9934156998061	81.5017832999583	83.493434399832
24	2	12	distractor	51	Right	Right	RightArrow	1	1.31493770005181	84.5	84.4934637998231	84.9984613999259	86.993482099846
25	3	1	filler	31	None			NaN	0	88	87.9934158998076	88.501616399968	90.4971382999793
26	3	2	filler	10	None			NaN	0	91.5	91.5102712998632	92.0024459999986	93.9967449000105
27	3	3	distractor	53	Right	Right	RightArrow	1	0.980037600034848	95	95.0075364999939	95.5037213999312	97.4934604999144
28	3	4	target	12	Left	Left	LeftArrow	1	0.671746399952099	98.5	98.4933851999231	98.9991846999619	100.993531699991
29	3	5	distractor	74	Right	Right	RightArrow	1	1.21204490005039	102	101.993997999933	102.502484899946	104.493439299986
30	3	6	target	11	Left	Left	LeftArrow	1	1.09253810020164	105.5	105.493497299962	106.002770099789	107.993769799825
31	3	7	target	75	Left	Left	LeftArrow	1	1.10886450018734	109	108.993404999841	109.500007799827	111.493540099822
32	3	8	distractor	54	Right	Right	RightArrow	1	0.94642599998042	112.5	112.493550599786	113.003132299986	114.993770999834
33	3	9	distractor	32	Right	Right	RightArrow	1	0.880517899990082	116	115.993349299999	116.505140799796	118.493416399928
34	3	10	target	52	Left	Left	LeftArrow	1	1.05234150006436	119.5	119.493441300001	120.002883599838	121.993448999943
35	3	11	target	33	Left	Right	RightArrow	0	1.18628869997337	123	122.993468799861	123.506081299856	125.493470099987
36	3	12	distractor	73	Right	Right	RightArrow	1	1.19725460000336	126.5	126.493454099866	127.000838999869	128.993163399864
37	4	1	filler	13	None			NaN	0	130	129.992970799794	130.504064699868	132.499198799953
38	4	2	filler	14	None			NaN	0	133.5	133.508940499974	133.998620699858	135.998417599825
39	4	3	target	15	Left	Left	LeftArrow	1	2.10547380009666	137	137.006072099786	137.499542699894	139.498573699966
40	4	4	distractor	56	Right	Right	RightArrow	1	0.86785460007377	140.5	140.493477099808	141.002465299796	142.993450499838
41	4	5	distractor	76	Right	Right	RightArrow	1	0.982889600098133	144	143.993059400003	144.498795399908	146.493005699944
42	4	6	target	55	Left	Left	LeftArrow	1	1.13761790003628	147.5	147.493569199927	147.999685099814	149.993580699898
43	4	7	target	78	Left	Right	RightArrow	0	1.42861580010504	151	150.993357299827	151.501275299815	153.493414299795
44	4	8	distractor	36	Right	Left	LeftArrow	0	2.18709530006163	154.5	154.493316799868	155.003897599876	156.996305299923
45	4	9	target	77	Left	Left	LeftArrow	1	0.926395100075752	158	157.993489799788	158.500637499848	160.493463199819
46	4	10	target	35	Left	Left	LeftArrow	1	1.23320850008167	161.5	161.493465699954	162.000140199903	163.993294899818
47	4	11	distractor	34	Right	Right	RightArrow	1	1.58397870021872	165	164.993407499976	165.499803699786	167.493382299785
48	4	12	distractor	57	Right	Left	LeftArrow	0	1.9196347000543	168.5	168.493468999863	168.998621299863	170.993462699931
49	5	1	filler	58	None			NaN	0	172	171.993475899799	172.504521099851	174.49380149995
50	5	2	filler	81	None			NaN	0	175.5	175.50493119983	176.003193899989	177.99464239995
51	5	3	target	60	Left	Right	RightArrow	0	0.966311799827963	179	179.005690199789	179.503497299971	181.493397299899
52	5	4	target	80	Left	Left	LeftArrow	1	0.584873599931598	182.5	182.49346649996	182.999888999853	184.9938101999
53	5	5	distractor	18	Right	Right	RightArrow	1	0.927034599939361	186	185.993447099812	186.503751199925	188.493330399971
54	5	6	distractor	16	Right	Right	RightArrow	1	0.790506500052288	189.5	189.493353599915	190.003336399794	191.993453699863
55	5	7	distractor	39	Right	Right	RightArrow	1	1.04890900012106	193	192.993377099978	193.502258899854	195.493453699863
56	5	8	target	17	Left	Left	LeftArrow	1	0.677698400104418	196.5	196.493999199942	197.00033189985	198.993276599795
57	5	9	target	38	Left	Right	RightArrow	0	1.6645692999009	200	199.993468099972	200.499160700012	202.493394999998
58	5	10	distractor	59	Right	Left	LeftArrow	0	2.13798430003226	203.5	203.493392499862	204.000196299981	205.995881899958
59	5	11	target	37	Left	Right	RightArrow	0	1.14296620013192	207	206.993036399828	207.502913999837	209.493397199782
60	5	12	distractor	79	Right	Right	RightArrow	1	1.27507749991491	210.5	210.493452499853	211.001955299871	212.993054099847
61	6	1	filler	21	None			NaN	0	214	213.993176099844	214.50332329981	216.494889699854
62	6	2	filler	40	None			NaN	0	217.5	217.508285899879	218.001725499984	219.996924699983
63	6	3	target	20	Left	Left	LeftArrow	1	0.991834500106052	221	221.010300399968	221.503986799857	223.493436599849
64	6	4	distractor	62	Right	Right	RightArrow	1	0.727384100202471	224.5	224.493398799794	225.003075499786	226.99346999987
65	6	5	distractor	82	Right	Right	RightArrow	1	0.910358499968424	228	227.993442599894	228.502086799825	230.493454399984
66	6	6	target	61	Left	Left	LeftArrow	1	1.71305310004391	231.5	231.493463099934	232.002303999849	233.993453099858
67	6	7	target	83	Left	Left	LeftArrow	1	1.67580999992788	235	234.993318699999	235.504939999897	237.493449199945
68	6	8	target	63	Left	Left	LeftArrow	1	0.979294299846515	238.5	238.493298799964	238.9983794	240.993460999802
69	6	9	target	84	Left	Right	RightArrow	0	0.884678199887276	242	241.993489799788	242.501389699988	244.493371299934
70	6	10	distractor	41	Right	Right	RightArrow	1	1.00749540003017	245.5	245.493490999797	246.003856499912	247.993468399858
71	6	11	distractor	42	Right	Left	LeftArrow	0	0.860926500055939	249	248.99337959988	249.504118899815	251.493465599837
72	6	12	distractor	19	Right	Right	RightArrow	1	0.963023100048304	252.5	252.493034099927	252.996977399802	254.993486199994
