trial_id	block	trial	type	stim_id	cresp	resp	resp_raw	acc	rt	trial_start_time_expt	trial_start_time	stim_onset_time	stim_offset_time
1	1	1	filler	5	None			NaN	0	4	3.99308770000061	4.51809219999996	6.50201260000176
2	1	2	filler	25	None			NaN	0	7.5	7.51720629999909	8.00266209999972	9.99693439999828
3	1	3	target	4	Left	Left	LeftArrow	1	1.23649840000144	11	11.0095239000002	11.4995186000015	13.4934893000027
4	1	4	target	27	Left	Left	LeftArrow	1	1.42851299999893	14.5	14.4932823999989	15.0005072999993	16.9933925000005
5	1	5	target	6	Left	Left	LeftArrow	1	1.8632815000019	18	17.9933041999975	18.5008518999966	20.4933835999982
6	1	6	distractor	48	Right	Right	RightArrow	1	1.28975090000313	21.5	21.4933170000004	21.9998801999973	23.9933474999998
7	1	7	distractor	46	Right	Right	RightArrow	1	1.52826849999838	25	24.9934862000009	25.4999095000021	27.4930024999994
8	1	8	target	47	Left	Right	RightArrow	0	0.291592500005208	28.5	28.493071500001	28.9959632999962	30.9934234000029
9	1	9	distractor	26	Right	Left	LeftArrow	0	0.368716999997559	32	31.9933421999958	32.4933391000013	34.4933468000017
10	1	10	distractor	67	Right	Right	RightArrow	1	1.36014889999933	35.5	35.493409499999	35.9933385999975	37.9933538999976
11	1	11	distractor	68	Right			-1	0	39	38.9933717000022	39.499756600002	41.4964252999998
12	1	12	target	69	Left	Left	LeftArrow	1	1.14317770000343	42.5	42.5080269999962	42.9994443999967	44.9932933000018
13	2	1	filler	30	None			NaN	0	46	45.9934944999986	46.496822299996	48.4967483
14	2	2	filler	49	None			NaN	0	49.5	49.506716099997	50.0024207999959	51.9941338999997
15	2	3	distractor	71	Right	Right	RightArrow	1	2.43034230000194	53	53.003744200003	53.4995366000003	55.4955816000002
16	2	4	distractor	8	Right	Left	LeftArrow	0	1.32363659999828	56.5	56.4934026999981	57.0009672000015	58.9933273999995
17	2	5	target	72	Left	Right	RightArrow	0	1.60032969999884	60	59.993364199996	60.497786699998	62.4933212999968
18	2	6	target	7	Left	Left	LeftArrow	1	1.32163189999847	63.5	63.4931043999968	63.9988541999992	65.9930767999977
19	2	7	distractor	50	Right	Right	RightArrow	1	1.06975580000289	67	66.9933620000011	67.498248099997	69.4934849999991
20	2	8	target	9	Left	Left	LeftArrow	1	1.45348019999801	70.5	70.4934329000025	71.001562999998	72.9933592000016
21	2	9	target	51	Left	Left	LeftArrow	1	1.13504939999984	74	73.9933729999975	74.5009357000017	76.493364199996
22	2	10	distractor	29	Right			-1	0	77.5	77.4934439999997	77.9988749999975	79.9984241999991
23	2	11	distractor	70	Right	Right	RightArrow	1	0.674553500000911	81	81.0038840999987	81.5002856999999	83.4935121000017
24	2	12	target	28	Left	Left	LeftArrow	1	1.9245762999999	84.5	84.4934156000018	84.9962719999967	86.9935153999977
25	3	1	filler	33	None			NaN	0	88	87.9933020000026	88.4970883999995	90.4980909000005
26	3	2	filler	54	None			NaN	0	91.5	91.5046115000005	92.0017950999973	93.9956327999971
27	3	3	distractor	75	Right	Right	RightArrow	1	1.09627769999497	95	95.0045013999988	95.5002734000009	97.4933695
28	3	4	distractor	10	Right			-1	0	98.5	98.4930869000018	98.9964513000014	100.997395699997
29	3	5	target	73	Left	Right	RightArrow	0	1.91480810000212	102	102.006788599996	102.493372299999	104.493421699997
30	3	6	target	12	Left	Left	LeftArrow	1	1.05571829999826	105.5	105.493431299998	106.001378699999	107.993104599998
31	3	7	target	74	Left	Right	RightArrow	0	0.95819570000458	109	108.993387499999	109.495896399996	111.493333799997
32	3	8	distractor	53	Right	Left	LeftArrow	0	1.11068860000523	112.5	112.493369299998	112.998411399996	114.993272699998
33	3	9	distractor	32	Right	Right	RightArrow	1	1.80804170000192	116	115.993062900001	116.499994899998	118.493153199997
34	3	10	target	52	Left	Left	LeftArrow	1	1.49833409999701	119.5	119.493377599996	119.999806200001	121.993798199997
35	3	11	target	31	Left	Right	RightArrow	0	1.43862950000039	123	122.9933103	123.500752899999	125.493070700002
36	3	12	distractor	11	Right	Left	LeftArrow	0	0.619297900004312	126.5	126.492997900001	126.998742299998	128.993104200003
37	4	1	filler	56	None			NaN	0	130	129.993393700002	130.499227200002	132.495894
38	4	2	filler	55	None			NaN	0	133.5	133.503171899996	133.996511799996	135.997501400001
39	4	3	distractor	13	Right	Right	RightArrow	1	0.911945100000594	137	137.003997499996	137.497286099999	139.493431000003
40	4	4	distractor	14	Right	Left	LeftArrow	0	1.88445140000113	140.5	140.4933428	140.996648499997	142.993418799997
41	4	5	distractor	78	Right			-1	0	144	143.993383599998	144.500020899999	146.497342399998
42	4	6	target	15	Left			-1	0	147.5	147.508871899998	147.998336600001	149.996457399997
43	4	7	target	76	Left	Left	LeftArrow	1	1.22056699999666	151	151.006064100002	151.496808900003	153.493406100002
44	4	8	distractor	36	Right			-1	0	154.5	154.493423400003	155.001091899998	156.997837900002
45	4	9	target	77	Left	Left	LeftArrow	1	1.08943310000177	158	158.007055900001	158.497663199996	160.4934106
46	4	10	target	35	Left			-1	0	161.5	161.493313999999	162.000794300002	163.995232900001
47	4	11	distractor	57	Right	Right	RightArrow	1	1.19883570000093	165	165.0069984	165.4983871	167.4934479
48	4	12	target	34	Left	Right	RightArrow	0	1.0389045999982	168.5	168.493488599997	168.998914800002	170.993092600002
49	5	1	filler	58	None			NaN	0	172	171.993027700002	172.498374700001	174.497219199999
50	5	2	filler	18	None			NaN	0	175.5	175.507006499996	176.001124000002	177.996290399999
51	5	3	target	60	Left	Left	LeftArrow	1	1.72363469999982	179	179.007593100003	179.496161000003	181.493439899998
52	5	4	target	16	Left	Right	RightArrow	0	1.48684100000537	182.5	182.493426000001	183.000574799997	184.993422400003
53	5	5	distractor	80	Right	Right	RightArrow	1	1.49526099999639	186	185.993045900002	186.498635700002	188.493295399996
54	5	6	target	17	Left	Right	RightArrow	0	1.74696879999829	189.5	189.493492499998	190.000754000001	191.993316300002
55	5	7	distractor	38	Right	Left	LeftArrow	0	1.21641400000226	193	192.993760199999	193.497399	195.4933982
56	5	8	distractor	81	Right	Left	LeftArrow	0	0.649983999996039	196.5	196.493340299996	196.9967741	198.993409299997
57	5	9	target	37	Left	Left	LeftArrow	1	0.532998299997416	200	199.992995799999	200.496608599999	202.493366399998
58	5	10	distractor	59	Right	Right	RightArrow	1	0.485473799999454	203.5	203.493362100002	204.000799900001	205.993353099999
59	5	11	target	39	Left	Left	LeftArrow	1	0.72613850000198	207	206.993423300002	207.499675699997	209.493457199998
60	5	12	distractor	79	Right	Right	RightArrow	1	0.909555399994133	210.5	210.4934412	211.002144500002	212.993405900001
61	6	1	filler	42	None			NaN	0	214	213.993474199997	214.498063999999	216.498354700001
62	6	2	filler	83	None			NaN	0	217.5	217.506106100001	218.001271399997	219.997693600002
63	6	3	target	40	Left	Right	RightArrow	0	1.26871129999927	221	221.003443699999	221.501310599997	223.493502899997
64	6	4	target	84	Left	Left	LeftArrow	1	0.514870200000587	224.5	224.493369800002	225.001578399999	226.993359599997
65	6	5	distractor	61	Right	Right	RightArrow	1	0.756678600002488	228	227.993658200001	228.497644399999	230.493378599997
66	6	6	target	82	Left	Right	RightArrow	0	0.910458099999232	231.5	231.493299000002	231.996245100003	233.993316200002
67	6	7	distractor	19	Right	Left	LeftArrow	0	2.08435879999888	235	234.993212399997	235.497342800001	237.497550699998
68	6	8	distractor	41	Right			-1	0	238.5	238.493165	238.9962648	240.996929599998
69	6	9	distractor	63	Right			-1	0	242	242.004001399997	242.501473199998	244.495972099998
70	6	10	distractor	21	Right	Right	RightArrow	1	0.930616700003156	245.5	245.505373300002	246.000149499996	247.993460199999
71	6	11	target	62	Left	Left	LeftArrow	1	0.806595599999127	249	248.9933485	249.4990865	251.4933561
72	6	12	target	20	Left	Right	RightArrow	0	0.631436199997552	252.5	252.493367999996	253.000802800001	254.992998900001
