trial_id	block	trial	type	stim_id	cresp	resp	resp_raw	acc	rt	trial_start_time_expt	trial_start_time	stim_onset_time	stim_offset_time
1	1	1	filler	41	None			NaN	0	4	3.99344109999947	4.50323539999954	6.49648359999992
2	1	2	filler	42	None			NaN	0	7.5	7.51880910000182	8.00612389999878	9.99924480000118
3	1	3	distractor	5	Right	Left	LeftArrow	0	1.42414880000069	11	11.0110147999985	11.5017838999993	13.4935311000008
4	1	4	target	43	Left	Left	LeftArrow	1	1.97276259999853	14.5	14.4934651000003	14.9990921999997	16.9934859999994
5	1	5	target	7	Left	Right	RightArrow	0	0.95604689999891	18	17.9934551000006	18.5032799000001	20.4934388000001
6	1	6	distractor	6	Right	Left	LeftArrow	0	0.718380900001648	21.5	21.4934729000015	21.9976720999985	23.9935441999987
7	1	7	target	9	Left	Right	RightArrow	0	1.75724479999917	25	24.9934518000009	25.5001607000013	27.4937414999986
8	1	8	distractor	45	Right	Left	LeftArrow	0	1.60118779999902	28.5	28.493454200001	29.0011329000008	30.993452499999
9	1	9	distractor	44	Right	Right	RightArrow	1	1.41243060000124	32	31.9934620999993	32.4982949000005	34.4934853000013
10	1	10	distractor	10	Right	Right	RightArrow	1	1.50390530000004	35.5	35.4934816999994	36.0021046000002	37.9934662999985
11	1	11	target	46	Left	Left	LeftArrow	1	0.697007499999017	39	38.9936216999995	39.5022002000005	41.4934055999984
12	1	12	target	8	Left	Left	LeftArrow	1	0.882386699999188	42.5	42.4933366000005	43.0032234999999	44.9934122000013
13	2	1	filler	51	None	Right	RightArrow	NaN	1.05631300000096	46	45.9934346000009	46.5069738999991	48.4933605000006
14	2	2	filler	12	None	Left	LeftArrow	NaN	0.836498900000151	49.5	49.4933816999983	50.0008559000016	51.9933496999984
15	2	3	distractor	14	Right	Right	RightArrow	1	1.6194101000001	53	52.9934762000012	53.503575499999	55.4935060999996
16	2	4	distractor	47	Right	Left	LeftArrow	0	1.60185329999877	56.5	56.4933899999996	57.0027197000018	58.9934310999997
17	2	5	distractor	49	Right	Right	RightArrow	1	1.02525109999988	60	59.9934452000016	60.5025165000006	62.4934543999989
18	2	6	target	52	Left	Left	LeftArrow	1	1.41150319999724	63.5	63.4935130000013	64.003607300001	65.9934457999989
19	2	7	target	50	Left	Left	LeftArrow	1	0.744651400000294	67	66.9934694000003	67.5028711000014	69.4934648000017
20	2	8	target	48	Left	Left	LeftArrow	1	0.815631800000119	70.5	70.4934723000006	70.9993055000014	72.9934762999983
21	2	9	distractor	16	Right	Right	RightArrow	1	1.48044630000004	74	73.9938707000001	74.5029284999982	76.4934362999993
22	2	10	distractor	13	Right	Left	LeftArrow	0	1.61708349999753	77.5	77.4933655999994	78.0019581000015	79.9934276999993
23	2	11	target	11	Left	Left	LeftArrow	1	2.73936959999992	81	80.9934226000005	81.4985220000017	83.4979262999987
24	2	12	target	15	Left	Right	RightArrow	0	2.41593519999878	84.5	84.4934680000006	85.0039507000001	87.0002772000007
25	3	1	filler	17	None	Left	LeftArrow	NaN	2.17975429999933	88	87.993480000001	88.5038177999995	90.4945453
26	3	2	filler	57	None	Left	LeftArrow	NaN	0.628079899997829	91.5	91.4934503000004	92.0014138000006	93.9934576999985
27	3	3	distractor	53	Right	Right	RightArrow	1	2.03559529999984	95	94.9934599000007	95.4994408999992	97.4960372999994
28	3	4	distractor	20	Right	Left	LeftArrow	0	1.45784590000039	98.5	98.4934557000015	99.0000919000013	100.993444899999
29	3	5	target	58	Left	Right	RightArrow	0	1.44451149999804	102	101.993358	102.500745000001	104.493636899999
30	3	6	distractor	56	Right	Left	LeftArrow	0	0.698249699998996	105.5	105.493463399998	105.997227200001	107.993405100002
31	3	7	target	55	Left	Right	RightArrow	0	0.720066099998803	109	108.9933452	109.502040700001	111.4934364
32	3	8	distractor	21	Right	Left	LeftArrow	0	0.797112900003413	112.5	112.493399200001	113.001465099998	114.993394699999
33	3	9	target	54	Left	Right	RightArrow	0	0.635344099999202	116	115.9934097	116.499680299999	118.493448500001
34	3	10	target	22	Left	Left	LeftArrow	1	0.637473599999794	119.5	119.493392100001	119.998296599999	121.993407400001
35	3	11	distractor	19	Right	Left	LeftArrow	0	0.444196899999952	123	122.993448599998	123.5030505	125.493425100001
36	3	12	target	18	Left	Right	RightArrow	0	0.871897900000477	126.5	126.4933666	126.999754100001	128.993361100001
37	4	1	filler	24	None	Left	LeftArrow	NaN	0.250364899999113	130	129.993390399999	130.5005585	132.493400700001
38	4	2	filler	63	None	Right	RightArrow	NaN	0.712381099998311	133.5	133.493450000002	134.0031189	135.993464700001
39	4	3	target	26	Left	Left	LeftArrow	1	1.51377800000046	137	136.993476899999	137.502582000001	139.493468299999
40	4	4	distractor	23	Right	Right	RightArrow	1	1.70333000000028	140.5	140.4934393	141.003797099998	142.9935363
41	4	5	distractor	59	Right	Left	LeftArrow	0	1.64298090000011	144	143.993349799999	144.5016555	146.4934521
42	4	6	target	27	Left	Right	RightArrow	0	1.09512399999949	147.5	147.493449000001	148.0012437	149.993473999999
43	4	7	distractor	25	Right	Left	LeftArrow	0	0.729474700001447	151	150.993433299998	151.4986016	153.493451099999
44	4	8	target	28	Left	Right	RightArrow	0	0.858299300001818	154.5	154.493519	154.9998872	156.993399999999
45	4	9	distractor	64	Right	Left	LeftArrow	0	0.578991499998665	158	157.993526900002	158.501536700001	160.493379399999
46	4	10	distractor	62	Right	Right	RightArrow	1	1.1592813999996	161.5	161.493389499999	161.997237200001	163.9934651
47	4	11	target	60	Left	Left	LeftArrow	1	1.14080950000061	165	164.9933752	165.505092700001	167.493450499998
48	4	12	target	61	Left	Right	RightArrow	0	0.547086599999602	168.5	168.493456799999	168.998344600001	170.993536099999
49	5	1	filler	32	None	Left	LeftArrow	NaN	1.02656439999919	172	171.993386400001	172.504670300001	174.4934378
50	5	2	filler	34	None	Right	RightArrow	NaN	0.890888999998424	175.5	175.4935286	176.0024734	177.993456299999
51	5	3	target	31	Left	Left	LeftArrow	1	1.72105949999968	179	178.993464200001	179.498893799999	181.493596600001
52	5	4	distractor	65	Right	Right	RightArrow	1	1.80966030000127	182.5	182.493306699998	182.9986451	184.9934015
53	5	5	distractor	68	Right	Left	LeftArrow	0	0.583400799998344	186	185.993327200002	186.501505	188.493309000001
54	5	6	distractor	30	Right	Right	RightArrow	1	1.10236710000027	189.5	189.493474300001	190.0042904	191.9933853
55	5	7	target	70	Left	Left	LeftArrow	1	0.286133699999482	193	192.993417400001	193.497123100002	195.493472099999
56	5	8	distractor	67	Right	Right	RightArrow	1	1.22721599999932	196.5	196.493477600001	197.000619300001	198.993360199998
57	5	9	target	66	Left	Left	LeftArrow	1	1.0475351999994	200	199.9934555	200.499403599999	202.4934593
58	5	10	distractor	29	Right	Right	RightArrow	1	0.531312000002799	203.5	203.493455600001	203.997548399999	205.993486300002
59	5	11	target	69	Left	Left	LeftArrow	1	0.412787799999933	207	206.993475700001	207.498015199999	209.493375099999
60	5	12	target	33	Left	Left	LeftArrow	1	0.446897900001204	210.5	210.4934665	210.9994037	212.993451099999
61	6	1	filler	38	None	Right	RightArrow	NaN	0.870080599997891	214	213.993518899999	214.501489400001	216.4937092
62	6	2	filler	37	None	Right	RightArrow	NaN	0.252483000000211	217.5	217.4934202	217.9988816	219.993338200002
63	6	3	distractor	75	Right	Left	LeftArrow	0	0.989846000000398	221	220.993424600001	221.501140299999	223.4934345
64	6	4	target	36	Left	Left	LeftArrow	1	0.94091330000083	224.5	224.493416599998	225.002508900001	226.993434
65	6	5	target	76	Left	Left	LeftArrow	1	1.36444060000213	228	227.9933117	228.4981658	230.493500299999
66	6	6	distractor	71	Right	Right	RightArrow	1	0.872160700000677	231.5	231.493464399999	232.002531300001	233.993465899999
67	6	7	target	74	Left	Right	RightArrow	0	1.0623364000021	235	234.9933877	235.500343799999	237.4934478
68	6	8	target	73	Left	Right	RightArrow	0	1.58141519999845	238.5	238.493398099999	239.000656	240.9934699
69	6	9	distractor	39	Right	Left	LeftArrow	0	0.589364799998293	242	241.993531299999	242.502747300001	244.4934264
70	6	10	distractor	40	Right	Right	RightArrow	1	0.716060999999172	245.5	245.493467200002	245.999100500001	247.993413799999
71	6	11	target	35	Left	Left	LeftArrow	1	0.715219900001102	249	248.993425500001	249.5020534	251.494049299999
72	6	12	distractor	72	Right	Right	RightArrow	1	0.762207699997816	252.5	252.493516800001	252.998313700002	254.993434299999
