trial_id	block	trial	type	stim_id	cresp	resp	resp_raw	acc	rt	trial_start_time_expt	trial_start_time	stim_onset_time	stim_offset_time
1	1	1	filler	48	None			NaN	0	4	3.99325929989573	4.50564190000296	6.49660329998005
2	1	2	filler	68	None			NaN	0	7.5	7.50695399998222	8.00506929995026	9.99560589995235
3	1	3	target	46	Left	Left	LeftArrow	1	1.12838400003966	11	11.0126279999968	11.4990147999488	13.493528699968
4	1	4	distractor	47	Right	Right	RightArrow	1	1.885418400052	14.5	14.4934553999919	15.0036580999149	16.9934356999584
5	1	5	distractor	26	Right	Left	LeftArrow	0	2.0405763000017	18	17.9934940999374	18.5009120999603	20.4948088999372
6	1	6	distractor	27	Right	Right	RightArrow	1	1.82004620006774	21.5	21.4935653998982	21.9987818999216	23.9935298999771
7	1	7	distractor	5	Right	Right	RightArrow	1	1.5055457999697	25	24.9933389999205	25.5017359999474	27.4934317999287
8	1	8	target	25	Left	Left	LeftArrow	1	1.89567389991134	28.5	28.4935404999414	29.0033313999884	30.9935238999315
9	1	9	target	4	Left	Right	RightArrow	0	1.15850540006068	32	31.9934740999015	32.5016574999318	34.4933445999632
10	1	10	distractor	69	Right	Right	RightArrow	1	1.69846860005055	35.5	35.4935833999189	36.0010331999511	37.9934800999472
11	1	11	target	6	Left	Left	LeftArrow	1	1.28484810004011	39	38.9931732999394	39.5005286999512	41.4933687999146
12	1	12	target	67	Left	Left	LeftArrow	1	1.5096655000234	42.5	42.4934962999541	43.0006217999617	44.9935038998956
13	2	1	filler	9	None			NaN	0	46	45.9934308999218	46.501782999956	48.4984442999121
14	2	2	filler	30	None			NaN	0	49.5	49.5036093998933	50.0022940000053	51.9987836999353
15	2	3	target	7	Left	Left	LeftArrow	1	1.39425370004028	53	52.9957450999646	53.4954227999551	55.493480599951
16	2	4	target	28	Left	Left	LeftArrow	1	1.12928720004857	56.5	56.4933130999561	57.0002501999261	58.9931612999644
17	2	5	distractor	71	Right	Right	RightArrow	1	1.66901419998612	60	59.9935573999537	60.4993878999958	62.4934342999477
18	2	6	target	29	Left	Right	RightArrow	0	1.92291059996933	63.5	63.4934526999714	64.001266199979	65.9934346999507
19	2	7	distractor	8	Right	Left	LeftArrow	0	1.74782730010338	67	66.9931785999797	67.5025096999016	69.4935192998964
20	2	8	distractor	72	Right	Right	RightArrow	1	1.80513670004439	70.5	70.493097599945	71.0022413999541	72.9935061999131
21	2	9	distractor	50	Right	Right	RightArrow	1	0.892743099946529	74	73.9935794000048	74.503800699953	76.4937131999759
22	2	10	target	70	Left	Right	RightArrow	0	1.61715369997546	77.5	77.4934091999894	78.0024586999789	79.9935046999017
23	2	11	target	49	Left	Left	LeftArrow	1	0.984071700018831	81	80.993524099933	81.5027919999557	83.4934789999388
24	2	12	distractor	51	Right	Right	RightArrow	1	1.89236910000909	84.5	84.4934283999028	84.9986903999234	86.9934839999769
25	3	1	filler	31	None			NaN	0	88	87.9932460999116	88.4996401999379	90.4979342999868
26	3	2	filler	10	None			NaN	0	91.5	91.5094564999454	91.9979380998993	93.999456099933
27	3	3	distractor	53	Right	Right	RightArrow	1	1.04248910001479	95	95.0044109999435	95.5044098999351	97.4934234999819
28	3	4	target	12	Left	Left	LeftArrow	1	1.83320059999824	98.5	98.4935441999696	99.0007405999349	100.993507299921
29	3	5	distractor	74	Right	Right	RightArrow	1	2.11808359995484	102	101.993281999952	102.503301199991	104.493739399943
30	3	6	target	11	Left	Left	LeftArrow	1	1.81428229995072	105.5	105.493343199953	106.000150799984	107.993560999981
31	3	7	target	75	Left	Left	LeftArrow	1	2.0576080000028	109	108.993466899963	109.501935999957	111.499718399951
32	3	8	distractor	54	Right	Right	RightArrow	1	0.20975520007778	112.5	112.493442000006	112.998766599922	114.993498099968
33	3	9	distractor	32	Right	Left	LeftArrow	0	0.375320199993439	116	115.993501999998	116.501695199986	118.493468399975
34	3	10	target	52	Left	Right	RightArrow	0	1.6415347000584	119.5	119.493404699955	120.001824499923	121.993564100005
35	3	11	target	33	Left	Left	LeftArrow	1	1.25332380004693	123	122.993404599954	123.505447799922	125.493436399964
36	3	12	distractor	73	Right	Right	RightArrow	1	1.90484420000575	126.5	126.493218099931	127.00169179996	128.993445599917
37	4	1	filler	13	None			NaN	0	130	129.993125599925	130.500706899911	132.493942999979
38	4	2	filler	14	None			NaN	0	133.5	133.507940299925	134.000897099962	135.996712299995
39	4	3	target	15	Left	Left	LeftArrow	1	0.932066100067459	137	137.005326699931	137.5036407999	139.493526599952
40	4	4	distractor	56	Right	Right	RightArrow	1	2.26173909998033	140.5	140.493446599925	141.00341419992	142.998080499936
41	4	5	distractor	76	Right	Left	LeftArrow	0	1.76851249998435	144	143.993572499952	144.504135499941	146.494139299961
42	4	6	target	55	Left	Left	LeftArrow	1	2.35590660001617	147.5	147.493633699953	148.00172499998	149.996717199916
43	4	7	target	78	Left	Left	LeftArrow	1	1.38198019994888	151	150.993516899995	151.50347919995	153.493478199933
44	4	8	distractor	36	Right	Left	LeftArrow	0	1.31594240001868	154.5	154.493487600004	155.005073099979	156.993444299907
45	4	9	target	77	Left	Right	RightArrow	0	1.55572159995791	158	157.99358229991	158.504140099976	160.493479599943
46	4	10	target	35	Left	Right	RightArrow	0	1.82787819998339	161.5	161.493549300008	162.002292299992	163.993453999981
47	4	11	distractor	34	Right	Left	LeftArrow	0	0.662912499974482	165	164.993537799921	165.501813799958	167.493434399948
48	4	12	distractor	57	Right	Right	RightArrow	1	1.20116080006119	168.5	168.493457000004	169.000140699907	170.993533900008
49	5	1	filler	58	None			NaN	0	172	171.993544399971	172.504682999919	174.497584600002
50	5	2	filler	81	None			NaN	0	175.5	175.502735599992	175.999621799914	177.996042299899
51	5	3	target	60	Left	Right	RightArrow	0	1.84871179994661	179	179.002905300003	179.499418699997	181.493466099957
52	5	4	target	80	Left	Left	LeftArrow	1	1.56322110001929	182.5	182.493793999893	183.002066799905	184.993483499973
53	5	5	distractor	18	Right	Right	RightArrow	1	1.53570300003048	186	185.993418199942	186.498413999914	188.493496499956
54	5	6	distractor	16	Right	Right	RightArrow	1	1.19247599993832	189.5	189.493178099976	189.999172699987	191.993538499926
55	5	7	distractor	39	Right	Right	RightArrow	1	1.22962720005307	193	192.993479999946	193.499823399936	195.493077599909
56	5	8	target	17	Left	Left	LeftArrow	1	1.25121259992011	196.5	196.493564500008	197.004583899979	198.993173899944
57	5	9	target	38	Left	Right	RightArrow	0	1.36210449994542	200	199.993548600003	200.499205800006	202.493503799895
58	5	10	distractor	59	Right	Right	RightArrow	1	1.61099329998251	203.5	203.493463999941	204.001923399977	205.993516799994
59	5	11	target	37	Left	Left	LeftArrow	1	1.73585109994747	207	206.993454299984	207.498770999955	209.493523499928
60	5	12	distractor	79	Right	Right	RightArrow	1	1.53173940000124	210.5	210.493459099904	211.000602899934	212.993457200006
61	6	1	filler	21	None			NaN	0	214	213.993200199911	214.503330699983	216.49459389993
62	6	2	filler	40	None			NaN	0	217.5	217.504125799984	218.001017899951	219.997023799922
63	6	3	target	20	Left	Left	LeftArrow	1	1.48020130000077	221	221.009630999994	221.503883199999	223.493507799925
64	6	4	distractor	62	Right	Right	RightArrow	1	1.39641879999544	224.5	224.493494099937	224.999654999934	226.993527199957
65	6	5	distractor	82	Right	Right	RightArrow	1	1.69052279996686	228	227.9934564	228.501719499938	230.493521999917
66	6	6	target	61	Left	Right	RightArrow	0	1.92029189993627	231.5	231.49309829995	232.005453199963	233.993498799973
67	6	7	target	83	Left			-1	0	235	234.99337479996	235.499053499894	237.494571899995
68	6	8	target	63	Left	Right	RightArrow	0	2.72453430003952	238.5	238.509522699984	238.99377089995	240.994157999987
69	6	9	target	84	Left	Left	LeftArrow	1	2.0236053999979	242	241.993774799979	242.500397800002	244.499732999946
70	6	10	distractor	41	Right	Left	LeftArrow	0	1.83673999994062	245.5	245.493533100002	246.001080699963	247.993499099975
71	6	11	distractor	42	Right	Right	RightArrow	1	2.65012110001408	249	248.993567299913	249.503648199956	251.499615999986
72	6	12	distractor	19	Right	Left	LeftArrow	0	1.63943470001686	252.5	252.49352239992	252.999838699936	254.993471499998
