trial_id	block	trial	type	stim_id	cresp	resp	resp_raw	acc	rt	trial_start_time_expt	trial_start_time	stim_onset_time	stim_offset_time
1	1	1	filler	5	None			NaN	0	4	3.993464600062	4.52378689998295	6.49582399998326
2	1	2	filler	25	None			NaN	0	7.5	7.50661000004038	8.00311639998108	9.99843979999423
3	1	3	target	4	Left	Left	LeftArrow	1	1.04467239999212	11	11.0054690999677	11.5030148000224	13.4934118000092
4	1	4	target	27	Left	Left	LeftArrow	1	2.78234750009142	14.5	14.4933983000228	14.9971502999542	16.9974481000099
5	1	5	target	6	Left	Right	RightArrow	0	1.62885109998751	18	17.9934598000254	18.4965472000185	20.4934757000301
6	1	6	distractor	48	Right	Right	RightArrow	1	2.05980519996956	21.5	21.4930756000103	21.9980928000296	23.9992359000025
7	1	7	distractor	46	Right	Right	RightArrow	1	1.89285549998749	25	24.9928191000363	25.5009366000304	27.4939002000028
8	1	8	target	47	Left	Left	LeftArrow	1	0.776766899973154	28.5	28.4934611000353	28.9991423999891	30.9934117000084
9	1	9	distractor	26	Right	Right	RightArrow	1	2.39930409996305	32	31.9933872000547	32.5019637000514	34.4986796999583
10	1	10	distractor	67	Right	Right	RightArrow	1	1.24792520003393	35.5	35.4935059000272	35.9954753000056	37.9934704999905
11	1	11	distractor	68	Right	Right	RightArrow	1	1.65436170005705	39	38.9937436999753	39.4993999999715	41.4938955999678
12	1	12	target	69	Left	Left	LeftArrow	1	0.704466100083664	42.5	42.4937013000017	42.9981007999741	44.9935714000603
13	2	1	filler	30	None	Right	RightArrow	NaN	2.0550267000217	46	45.9934841999784	46.5005865000421	48.4996493000071
14	2	2	filler	49	None	Right	RightArrow	NaN	2.83050409995485	49.5	49.4934136000229	50.0004129000008	51.9958650000626
15	2	3	distractor	71	Right	Right	RightArrow	1	2.91711879998911	53	52.9936553000007	53.496199300047	55.4958147000289
16	2	4	distractor	8	Right	Right	RightArrow	1	1.94840380002279	56.5	56.4934045999544	56.9985159999924	58.9934081999818
17	2	5	target	72	Left	Left	LeftArrow	1	0.977626500069164	60	59.99351020006	60.4999985999893	62.4941307000117
18	2	6	target	7	Left	Right	RightArrow	0	1.01460430002771	63.5	63.4936942000641	63.9971045999555	65.9933502000058
19	2	7	distractor	50	Right	Right	RightArrow	1	1.61663290008437	67	66.9931126000592	67.4984198999591	69.4931049000006
20	2	8	target	9	Left	Right	RightArrow	0	1.38230259995908	70.5	70.4934835999738	70.9992064000107	72.9934808999533
21	2	9	target	51	Left	Left	LeftArrow	1	1.71010570006911	74	73.9933693000348	74.4945102999918	76.493482699967
22	2	10	distractor	29	Right	Right	RightArrow	1	1.66595699999016	77.5	77.4933747999603	78.0000620000064	79.9935793000041
23	2	11	distractor	70	Right	Left	LeftArrow	0	1.11693520005792	81	80.9939348000335	81.5019702999853	83.4934626000468
24	2	12	target	28	Left	Left	LeftArrow	1	2.03968470008112	84.5	84.493387100054	85.0003452999517	86.994284800021
25	3	1	filler	33	None	Right	RightArrow	NaN	0.864419399993494	88	87.9934956000652	88.5004041000502	90.4934398999903
26	3	2	filler	54	None	Left	LeftArrow	NaN	0.835525900009088	91.5	91.4934236999834	91.9971270000096	93.993335200008
27	3	3	distractor	75	Right	Right	RightArrow	1	2.21852140000556	95	94.9935113999527	95.4990824999986	97.4943549999734
28	3	4	distractor	10	Right	Left	LeftArrow	0	1.52016369998455	98.5	98.4938787999563	98.9957148999674	100.99342059996
29	3	5	target	73	Left	Left	LeftArrow	1	1.53414240002166	102	101.993414900033	102.49599570001	104.493317099987
30	3	6	target	12	Left	Right	RightArrow	0	0.927903400035575	105.5	105.493471900001	105.999433499994	107.993384200032
31	3	7	target	74	Left	Left	LeftArrow	1	1.57695519994013	109	108.993406799971	109.496120700031	111.49312140001
32	3	8	distractor	53	Right	Right	RightArrow	1	1.86738399998285	112.5	112.493433500058	112.99754380004	114.993397800019
33	3	9	distractor	32	Right	Right	RightArrow	1	1.39582259999588	116	115.993064700044	116.49574839999	118.493449400063
34	3	10	target	52	Left	Left	LeftArrow	1	1.11420870001893	119.5	119.493457500008	119.995933900005	121.993470699992
35	3	11	target	31	Left	Left	LeftArrow	1	2.15582949994132	123	122.993488700013	123.497483300045	125.49454720004
36	3	12	distractor	11	Right	Right	RightArrow	1	0.995866699959151	126.5	126.493480000063	126.998745499994	128.993472400005
37	4	1	filler	56	None	Left	LeftArrow	NaN	1.10285659995861	130	129.993517800001	130.498843700043	132.493637699983
38	4	2	filler	55	None			NaN	0	133.5	133.494024400017	133.999204599997	135.998627600027
39	4	3	distractor	13	Right	Right	RightArrow	1	1.14363589999266	137	137.009201699984	137.496749100043	139.493453199975
40	4	4	distractor	14	Right	Right	RightArrow	1	2.10833499999717	140.5	140.493446500041	141.001164000016	142.999498700025
41	4	5	distractor	78	Right	Right	RightArrow	1	1.59023599990178	144	143.993464000057	144.497042500065	146.493460200028
42	4	6	target	15	Left	Left	LeftArrow	1	1.68980989989359	147.5	147.493460600032	148.000681200065	149.993377899984
43	4	7	target	76	Left	Left	LeftArrow	1	2.36754819995258	151	150.993475400028	151.500584200025	153.499058300047
44	4	8	distractor	36	Right	Left	LeftArrow	0	2.29492759995628	154.5	154.49340799998	154.99708380003	156.998269999982
45	4	9	target	77	Left	Right	RightArrow	0	0.114352199947461	158	157.993208099972	158.500968800043	160.493377599982
46	4	10	target	35	Left	Left	LeftArrow	1	1.44640820007771	161.5	161.493409399991	162.000270699966	163.993578399997
47	4	11	distractor	57	Right	Right	RightArrow	1	0.214866800000891	165	164.993365300004	165.497871899977	167.49357000005
48	4	12	target	34	Left	Left	LeftArrow	1	1.69344120007008	168.5	168.493432300049	168.996890699957	170.99343250005
49	5	1	filler	58	None	Right	RightArrow	NaN	1.79475999996066	172	171.993316999986	172.50058890006	174.493432800053
50	5	2	filler	18	None	Right	RightArrow	NaN	2.55054580001161	175.5	175.493429600028	175.998466399964	177.994119000039
51	5	3	target	60	Left	Left	LeftArrow	1	0.67807859997265	179	178.993469799985	179.501396700041	181.493445700034
52	5	4	target	16	Left	Right	RightArrow	0	1.05846019997261	182.5	182.493388400064	182.99680209998	184.993402100052
53	5	5	distractor	80	Right	Right	RightArrow	1	1.48199990007561	186	185.993515599985	186.499994899961	188.493832899956
54	5	6	target	17	Left			-1	0	189.5	189.49338130001	189.998828700045	191.998100699973
55	5	7	distractor	38	Right	Right	RightArrow	1	1.79469259991311	193	193.00802920002	193.49679590005	195.493475100026
56	5	8	distractor	81	Right	Left	LeftArrow	0	2.28824889997486	196.5	196.493474900024	196.997819200042	198.999477999983
57	5	9	target	37	Left	Left	LeftArrow	1	1.74833550001495	200	199.993450699956	200.497770900023	202.493159300066
58	5	10	distractor	59	Right	Right	RightArrow	1	2.29264470003545	203.5	203.493470099987	203.997580699972	205.997933999985
59	5	11	target	39	Left	Right	RightArrow	0	1.83354569994844	207	206.993442900013	207.496030400041	209.493443500018
60	5	12	distractor	79	Right	Right	RightArrow	1	1.25400359998457	210.5	210.493434600066	210.998813500046	212.993458100013
61	6	1	filler	42	None	Left	LeftArrow	NaN	1.81475179991685	214	213.993394999998	214.499272100045	216.493473600014
62	6	2	filler	83	None	Right	RightArrow	NaN	1.52548439998645	217.5	217.49310740002	217.998110400047	219.993383600027
63	6	3	target	40	Left			-1	0	221	220.993383700028	221.497269300045	223.496636199998
64	6	4	target	84	Left	Left	LeftArrow	1	1.644369799993	224.5	224.508844900061	224.993474900024	226.993398400024
65	6	5	distractor	61	Right	Right	RightArrow	1	1.3329372999724	228	227.993522500037	228.501146099996	230.493464100058
66	6	6	target	82	Left			-1	0	231.5	231.493482399965	232.001510699978	233.999623200041
67	6	7	distractor	19	Right	Right	RightArrow	1	1.76388760004193	235	235.007027799962	235.499429799966	237.493176099961
68	6	8	distractor	41	Right	Right	RightArrow	1	2.1002355000237	238.5	238.493517499999	238.997250200016	240.99523780006
69	6	9	distractor	63	Right	Left	LeftArrow	0	1.5146249999525	242	241.993414100027	242.496993800043	244.493439399987
70	6	10	distractor	21	Right	Right	RightArrow	1	1.61679600004572	245.5	245.493387800059	246.000182299991	247.993442100007
71	6	11	target	62	Left	Left	LeftArrow	1	1.48215579998214	249	248.993467999971	249.501971299993	251.493104900001
72	6	12	target	20	Left	Right	RightArrow	0	1.41214059991762	252.5	252.493414900033	253.001642000047	254.993044500006
