trial_id	block	trial	type	stim_id	cresp	resp	resp_raw	acc	rt	trial_start_time_expt	trial_start_time	stim_onset_time	stim_offset_time
1	1	1	filler	48	None			NaN	0	4	3.99338530004025	4.50664240005426	6.49715370009653
2	1	2	filler	68	None			NaN	0	7.5	7.50828330009244	8.00048650009558	9.99641230003908
3	1	3	target	46	Left	Left	LeftArrow	1	1.21403950010426	11	11.0113271998707	11.5029833998997	13.4935015998781
4	1	4	distractor	47	Right	Right	RightArrow	1	2.00270770001225	14.5	14.4934481999371	15.0025371999945	16.9959408999421
5	1	5	distractor	26	Right	Right	RightArrow	1	1.89630010002293	18	17.9938540998846	18.5006756999064	20.4934255999979
6	1	6	distractor	27	Right	Right	RightArrow	1	1.67767239990644	21.5	21.4933970000129	22.0002419999801	23.9934390999842
7	1	7	distractor	5	Right	Right	RightArrow	1	1.35114219994284	25	24.9934727000073	25.5013323000167	27.4934624000452
8	1	8	target	25	Left	Left	LeftArrow	1	1.45177689986303	28.5	28.4932836000808	29.0042779000942	30.993479100056
9	1	9	target	4	Left	Left	LeftArrow	1	2.19888040004298	32	31.993399299914	32.4998699999414	34.49911409989
10	1	10	distractor	69	Right	Right	RightArrow	1	2.03605609992519	35.5	35.4929810999893	36.0021108000074	37.996022899868
11	1	11	target	6	Left	Right	RightArrow	0	1.92949969996698	39	38.9934833999723	39.5006192000583	41.4933825000189
12	1	12	target	67	Left	Right	RightArrow	0	2.16609979979694	42.5	42.4934435000177	42.9987568000797	44.9979032000992
13	2	1	filler	9	None			NaN	0	46	45.9931961998809	46.5035760998726	48.4939029999077
14	2	2	filler	30	None			NaN	0	49.5	49.5047063000966	50.002952599898	51.996657300042
15	2	3	target	7	Left	Left	LeftArrow	1	1.36239479994401	53	53.009644200094	53.5038574000355	55.4934429000132
16	2	4	target	28	Left	Right	RightArrow	0	0.926289699971676	56.5	56.4931554999202	56.9990350999869	58.9934217000846
17	2	5	distractor	71	Right	Right	RightArrow	1	1.24085010006092	60	59.9933939999901	60.5013834999409	62.4934644999448
18	2	6	target	29	Left	Left	LeftArrow	1	2.05669810017571	63.5	63.4934757999144	64.0004600998946	65.9981388000306
19	2	7	distractor	8	Right	Right	RightArrow	1	1.36820649984293	67	66.9934602000285	67.5027181000914	69.4934763000347
20	2	8	distractor	72	Right	Left	LeftArrow	0	2.248129399959	70.5	70.4934920000378	70.9977333999705	72.9939816000406
21	2	9	distractor	50	Right	Right	RightArrow	1	1.95813510008156	74	73.9933855000418	74.5049238998909	76.4933609000873
22	2	10	target	70	Left	Right	RightArrow	0	2.05411530006677	77.5	77.4933628998697	78.0027091999073	79.9987910999916
23	2	11	target	49	Left	Left	LeftArrow	1	1.41596659994684	81	80.9934612000361	81.5018092000391	83.4934555999935
24	2	12	distractor	51	Right	Right	RightArrow	1	1.57549110008404	84.5	84.4934715998825	84.9991599000059	86.9935524999164
25	3	1	filler	31	None			NaN	0	88	87.9929126999341	88.5043359000701	90.4959583999589
26	3	2	filler	10	None			NaN	0	91.5	91.5052968000527	91.9994631998707	93.9960046000779
27	3	3	distractor	53	Right	Right	RightArrow	1	1.22004060004838	95	95.0058663999662	95.5041159000248	97.4934825000819
28	3	4	target	12	Left	Left	LeftArrow	1	1.08828569995239	98.5	98.4934330000542	99.0028486999217	100.99353239988
29	3	5	distractor	74	Right	Right	RightArrow	1	1.29401069995947	102	101.993190899957	102.499057600042	104.493060299894
30	3	6	target	11	Left	Left	LeftArrow	1	1.52926139999181	105.5	105.49338130001	106.0037151	107.993475900032
31	3	7	target	75	Left	Right	RightArrow	0	1.50235650013201	109	108.993498299969	109.503040399868	111.493055599974
32	3	8	distractor	54	Right	Right	RightArrow	1	0.846408999990672	112.5	112.49348649988	113.002830199897	114.993482199963
33	3	9	distractor	32	Right	Left	LeftArrow	0	1.05818710010499	116	115.99349309993	116.502619599923	118.493455499876
34	3	10	target	52	Left	Left	LeftArrow	1	1.11364200012758	119.5	119.493652499979	120.00229409989	121.993407299975
35	3	11	target	33	Left	Left	LeftArrow	1	2.00998840015382	123	122.993439799873	123.499576499918	125.495376300067
36	3	12	distractor	73	Right	Left	LeftArrow	0	2.43731290008873	126.5	126.493347999873	127.001913599903	128.99841660005
37	4	1	filler	13	None			NaN	0	130	129.993435200071	130.501840299927	132.499079100089
38	4	2	filler	14	None			NaN	0	133.5	133.506909399992	134.000750399893	135.997531099943
39	4	3	target	15	Left	Left	LeftArrow	1	1.19195050001144	137	137.009876600001	137.501360299997	139.493458400015
40	4	4	distractor	56	Right	Right	RightArrow	1	2.03809010004625	140.5	140.493449599948	141.000262700021	142.993684699992
41	4	5	distractor	76	Right	Right	RightArrow	1	1.19414679985493	144	143.993437299971	144.502482200041	146.493476799922
42	4	6	target	55	Left	Left	LeftArrow	1	1.6924902999308	147.5	147.493488600012	147.995085099945	149.993372400058
43	4	7	target	78	Left	Right	RightArrow	0	2.13133020000532	151	150.993047199911	151.503199100029	153.495563900098
44	4	8	distractor	36	Right			-1	0	154.5	154.493468800094	155.000231799902	156.99554569996
45	4	9	target	77	Left	Left	LeftArrow	1	1.90743030002341	158	158.009802399902	158.501646999968	160.493523000041
46	4	10	target	35	Left	Left	LeftArrow	1	1.1040174998343	161.5	161.493347899988	162.002881200053	163.993413100019
47	4	11	distractor	34	Right	Left	LeftArrow	0	1.59713159990497	165	164.993442700012	165.504619400017	167.493449500063
48	4	12	distractor	57	Right	Right	RightArrow	1	0.833655200200155	168.5	168.493448999943	168.999587399885	170.993457699893
49	5	1	filler	58	None	Left	LeftArrow	NaN	0.750414000125602	172	171.993394599995	172.501564499922	174.493076199898
50	5	2	filler	81	None			NaN	0	175.5	175.493400299922	176.001283499878	177.996204700088
51	5	3	target	60	Left	Left	LeftArrow	1	1.44333790009841	179	179.00442370004	179.498959599994	181.493135900004
52	5	4	target	80	Left	Left	LeftArrow	1	1.18306709988974	182.5	182.49345519999	183.000203500036	184.993310600054
53	5	5	distractor	18	Right	Right	RightArrow	1	0.996045999927446	186	185.993469400099	186.499710300006	188.493499499978
54	5	6	distractor	16	Right	Left	LeftArrow	0	1.40784260001965	189.5	189.493462699931	190.001825500047	191.993501499994
55	5	7	distractor	39	Right	Right	RightArrow	1	1.78739199996926	193	192.993495400064	193.501144000096	195.493434200063
56	5	8	target	17	Left	Left	LeftArrow	1	2.06024429993704	196.5	196.493342400063	197.00210459996	198.997522299876
57	5	9	target	38	Left	Left	LeftArrow	1	2.08676739991643	200	199.993407699978	200.500042699976	202.496538500069
58	5	10	distractor	59	Right	Right	RightArrow	1	1.07178170001134	203.5	203.4934237001	204.00111000007	205.993486099876
59	5	11	target	37	Left	Left	LeftArrow	1	1.04160570004024	207	206.993386300048	207.504234399879	209.493413199903
60	5	12	distractor	79	Right	Right	RightArrow	1	1.53553999983706	210.5	210.493480100064	211.000927200075	212.993692100048
61	6	1	filler	21	None			NaN	0	214	213.99322360009	214.504223499913	216.495799199911
62	6	2	filler	40	None			NaN	0	217.5	217.509406399913	218.001603699988	219.994338599965
63	6	3	target	20	Left	Left	LeftArrow	1	1.02106179995462	221	221.008676799946	221.500715800095	223.493501499994
64	6	4	distractor	62	Right	Right	RightArrow	1	1.40491389995441	224.5	224.493472799892	225.001724899979	226.993506500032
65	6	5	distractor	82	Right	Right	RightArrow	1	1.81967229978181	228	227.99349360005	228.498620100087	230.493464200059
66	6	6	target	61	Left	Right	RightArrow	0	0.894909300142899	231.5	231.493726700079	232.004472299945	233.993028499885
67	6	7	target	83	Left	Right	RightArrow	0	2.05119200004265	235	234.993465200067	235.501106600044	237.499601399992
68	6	8	target	63	Left	Left	LeftArrow	1	1.57574709993787	238.5	238.493334099883	239.001425900031	240.993477900047
69	6	9	target	84	Left	Right	RightArrow	0	0.836745699867606	242	241.99342110008	242.504334500059	244.493266700068
70	6	10	distractor	41	Right	Left	LeftArrow	0	1.29126930003986	245.5	245.493443799904	246.001863499871	247.993456899887
71	6	11	distractor	42	Right	Right	RightArrow	1	1.41478180000558	249	248.99346440006	249.500701299869	251.493037000066
72	6	12	distractor	19	Right	Right	RightArrow	1	1.23070449987426	252.5	252.493461200036	253.000309800031	254.993471799884
