trial_id	block	trial	type	stim_id	cresp	resp	resp_raw	acc	rt	trial_start_time_expt	trial_start_time	stim_onset_time	stim_offset_time
1	1	1	filler	48	None			NaN	0	4	3.9934656000114	4.54288980003912	6.49793960002717
2	1	2	filler	68	None			NaN	0	7.5	7.51982829999179	8.0423790999921	9.99555310001597
3	1	3	target	46	Left	Right	RightArrow	0	1.36306570004672	11	11.0064195999876	11.5391298999893	13.4934247999918
4	1	4	distractor	47	Right	Left	LeftArrow	0	2.38231979997363	14.5	14.4933823000174	15.0374130000127	16.9975107000209
5	1	5	distractor	26	Right	Right	RightArrow	1	1.25193670002045	18	17.9933720999979	18.5403624000028	20.4933740000124
6	1	6	distractor	27	Right	Right	RightArrow	1	1.14352920005331	21.5	21.4934587000171	22.0389306999859	23.993364199996
7	1	7	distractor	5	Right	Right	RightArrow	1	1.39720299997134	25	24.993441300001	25.5389299000381	27.4933700000402
8	1	8	target	25	Left	Right	RightArrow	0	1.01520650001476	28.5	28.4934652000084	29.0360760000185	30.9934296000283
9	1	9	target	4	Left	Right	RightArrow	0	0.754950999980792	32	31.9933835000265	32.5378864000086	34.4934567000018
10	1	10	distractor	69	Right	Right	RightArrow	1	1.79004960000748	35.5	35.4934147000313	36.0361566999927	37.9934174999944
11	1	11	target	6	Left	Right	RightArrow	0	1.47294920001877	39	38.9930048999959	39.5356852000114	41.4934062000248
12	1	12	target	67	Left			-1	0	42.5	42.4938920999994	43.034865900001	44.9945854000398
13	2	1	filler	9	None			NaN	0	46	46.00739600003	46.5028487000382	48.4968437000061
14	2	2	filler	30	None			NaN	0	49.5	49.5050565000274	50.038944000029	51.999308700033
15	2	3	target	7	Left	Right	RightArrow	0	1.22277690004557	53	53.0076841000118	53.5392297999933	55.4930218000081
16	2	4	target	28	Left	Right	RightArrow	0	1.06238010001834	56.5	56.4934514000197	57.0337110999972	58.9933511000127
17	2	5	distractor	71	Right	Right	RightArrow	1	1.07833450002363	60	59.9934466000414	60.535157300008	62.493457900011
18	2	6	target	29	Left	Right	RightArrow	0	1.51056450000033	63.5	63.4934265000047	64.0341294000391	65.9934135000221
19	2	7	distractor	8	Right	Left	LeftArrow	0	1.16991130000679	67	66.9934465000406	67.4987430000328	69.4934486999991
20	2	8	distractor	72	Right	Right	RightArrow	1	0.712718299997505	70.5	70.4933764000307	70.9986261000158	72.9935066000326
21	2	9	distractor	50	Right	Right	RightArrow	1	0.676605999993626	74	73.9934644000023	74.5392278000363	76.4930263000424
22	2	10	target	70	Left	Right	RightArrow	0	0.853352900012396	77.5	77.494055600022	78.0360340999905	79.993381200009
23	2	11	target	49	Left	Right	RightArrow	0	1.55695220001508	81	80.9933153000311	81.5363351000124	83.4934043000103
24	2	12	distractor	51	Right	Right	RightArrow	1	1.27914280002005	84.5	84.4934541000403	85.0013528999989	86.9934451000299
25	3	1	filler	31	None			NaN	0	88	87.9933616000344	88.5356744999881	90.4939719000249
26	3	2	filler	10	None			NaN	0	91.5	91.5072601999855	92.0369939000229	93.9953600000008
27	3	3	distractor	53	Right	Right	RightArrow	1	0.884837899997365	95	95.0033192000119	95.5012916999985	97.4933430000092
28	3	4	target	12	Left	Right	RightArrow	0	0.838570000021718	98.5	98.4931531000184	99.0338551999885	100.993354500039
29	3	5	distractor	74	Right	Right	RightArrow	1	0.648222799994983	102	101.993349199998	102.538963300001	104.493375500024
30	3	6	target	11	Left	Right	RightArrow	0	0.889204200007953	105.5	105.49335200002	106.001547700027	107.993125899986
31	3	7	target	75	Left	Right	RightArrow	0	0.93195439997362	109	108.99338400003	109.534816700034	111.493554999994
32	3	8	distractor	54	Right	Right	RightArrow	1	0.817519799980801	112.5	112.493012499996	113.039540500031	114.993202299986
33	3	9	distractor	32	Right	Left	LeftArrow	0	1.07607340003597	116	115.993304200005	116.537564400001	118.492987400037
34	3	10	target	52	Left	Right	RightArrow	0	1.23029169999063	119.5	119.493065799994	120.033484400017	121.993421300023
35	3	11	target	33	Left	Left	LeftArrow	1	1.41349729994545	123	122.993417399994	123.54009980004	125.493014300009
36	3	12	distractor	73	Right	Right	RightArrow	1	0.963757200050168	126.5	126.493399600033	127.039320699987	128.993434700009
37	4	1	filler	13	None			NaN	0	130	129.993460100028	130.535714400001	132.494163400028
38	4	2	filler	14	None			NaN	0	133.5	133.509437600034	134.001324700017	135.99664279999
39	4	3	target	15	Left			-1	0	137	137.00595890003	137.538783200027	139.493734000018
40	4	4	distractor	56	Right	Right	RightArrow	1	1.23330500000156	140.5	140.504813800042	141.003272400005	142.993457200006
41	4	5	distractor	76	Right	Right	RightArrow	1	1.31687509996118	144	143.993453600036	144.50186910003	146.493415500037
42	4	6	target	55	Left	Right	RightArrow	0	1.48234020004747	147.5	147.4934565	147.998149199993	149.993397800019
43	4	7	target	78	Left	Right	RightArrow	0	0.877091599977575	151	150.993384100031	151.53836950002	153.493349900004
44	4	8	distractor	36	Right	Right	RightArrow	1	0.93344639998395	154.5	154.493408300041	155.038766000012	156.99343880004
45	4	9	target	77	Left	Right	RightArrow	0	0.819256799994037	158	157.993135500001	158.504012999998	160.493449400004
46	4	10	target	35	Left	Right	RightArrow	0	1.07942690001801	161.5	161.493339700042	162.03894910001	163.993442600011
47	4	11	distractor	34	Right	Right	RightArrow	1	1.07787809998263	165	164.993197300006	165.502692200011	167.49342850002
48	4	12	distractor	57	Right	Right	RightArrow	1	1.26002659997903	168.5	168.493400200037	168.998748500017	170.993151600007
49	5	1	filler	58	None			NaN	0	172	171.993435300014	172.535504300031	174.496949699998
50	5	2	filler	81	None			NaN	0	175.5	175.509235300007	176.002602300025	177.997702700028
51	5	3	target	60	Left			-1	0	179	179.008936099999	179.540561900008	181.49775520002
52	5	4	target	80	Left	Right	RightArrow	0	1.01018439995823	182.5	182.504156699986	183.038065800036	184.993523100042
53	5	5	distractor	18	Right	Right	RightArrow	1	0.80775249999715	186	185.993312900013	186.535275800037	188.493404500012
54	5	6	distractor	16	Right	Right	RightArrow	1	0.787063500029035	189.5	189.493320600013	190.037355999986	191.993007400015
55	5	7	distractor	39	Right	Right	RightArrow	1	0.916846000007354	193	192.993482300022	193.535480300023	195.493326199998
56	5	8	target	17	Left	Right	RightArrow	0	1.1511373000103	196.5	196.493218599993	197.002758799994	198.993441500003
57	5	9	target	38	Left	Right	RightArrow	0	1.02224630001001	200	199.993045400013	200.538519299997	202.493418900005
58	5	10	distractor	59	Right	Left	LeftArrow	0	1.29133179999189	203.5	203.493455599993	204.034739900031	205.993444000022
59	5	11	target	37	Left	Right	RightArrow	0	0.90018619998591	207	206.993423300039	207.538644200016	209.493290500017
60	5	12	distractor	79	Right	Right	RightArrow	1	0.943649099965114	210.5	210.493472500006	211.039770800038	212.993364499998
61	6	1	filler	21	None			NaN	0	214	213.993334700004	214.540009899996	216.500439100026
62	6	2	filler	40	None			NaN	0	217.5	217.505323400022	218.036577699997	219.994943200029
63	6	3	target	20	Left	Right	RightArrow	0	1.23251379997237	221	221.004356599995	221.538996900024	223.493324400042
64	6	4	distractor	62	Right	Right	RightArrow	1	1.43944980000379	224.5	224.493041400041	225.039470500022	226.993452300027
65	6	5	distractor	82	Right	Right	RightArrow	1	1.3591881999746	228	227.993343500013	228.500599900028	230.493320300011
66	6	6	target	61	Left	Right	RightArrow	0	1.0533658999484	231.5	231.493307300028	232.002084400039	233.993345800031
67	6	7	target	83	Left	Right	RightArrow	0	0.805583800014574	235	234.993362700043	235.534964599996	237.493430300034
68	6	8	target	63	Left	Right	RightArrow	0	1.01440390001517	238.5	238.493370599987	239.000053600001	240.993447799992
69	6	9	target	84	Left	Right	RightArrow	0	0.920679799979553	242	241.993428100017	242.504398800025	244.493242099998
70	6	10	distractor	41	Right	Right	RightArrow	1	1.17213680001441	245.5	245.493372800003	246.035601600015	247.99324869999
71	6	11	distractor	42	Right	Right	RightArrow	1	0.962321600003634	249	248.993394999998	249.535536699987	251.492938900017
72	6	12	distractor	19	Right	Left	LeftArrow	0	1.22005899995565	252.5	252.493054500024	253.037057500042	254.993793500005
